frame,acc_x,acc_y,acc_z,gyro_x,gyro_y,gyro_z
910,0.000000,-0.000000,9.810000,0.000000,0.000000,0.000000,0.016224
912,-6360.652344,41326.179688,-415.101685,0.000000,0.000000,0.000000,0.016224
913,-133.319489,0.650665,11.612969,0.000000,0.000000,0.000000,0.016224
914,0.000041,0.002500,9.810000,0.000000,0.000000,0.000000,0.016224
915,-0.000665,-0.002490,9.810040,0.000000,0.000000,0.000000,0.016224
916,0.000625,-0.000010,9.809922,0.000000,0.000000,0.000000,0.016224
917,-133.320038,0.655670,11.613008,0.000000,0.000000,0.000000,0.016224
918,0.000000,0.000000,9.810000,0.000000,0.000000,0.000000,0.016224
919,0.000000,0.000000,9.810000,0.000000,0.000000,0.000000,0.016224
920,0.000000,0.000000,9.810000,0.000000,0.000000,0.000000,0.016224
921,0.000000,0.000000,9.810000,0.000000,0.000000,0.000000,0.016224
922,0.000000,0.000000,9.810000,0.000000,0.000000,0.000000,0.016224
923,0.000000,0.000000,9.810000,0.000000,0.000000,0.000000,0.016224
924,0.000000,0.000000,9.810000,0.000000,0.000000,0.000000,0.016224
925,0.000000,0.000000,9.810000,0.000000,0.000000,0.000000,0.016224
926,0.000000,0.000000,9.810000,0.000000,0.000000,0.000000,0.016224
927,0.000000,0.000000,9.810000,0.000000,0.000000,0.000000,0.016224
928,0.000000,0.000000,9.810000,0.000000,0.000000,0.000000,0.016224
929,0.000000,0.000000,9.810000,0.000000,0.000000,0.000000,0.016224
930,0.000000,0.000000,9.810000,0.000000,0.000000,0.000000,0.016224
931,0.000000,0.000000,9.810000,0.000000,0.000000,0.000000,0.016224
932,0.000000,0.000000,9.810000,0.000000,0.000000,0.000000,0.016224
933,0.000000,0.000000,9.810000,0.000000,0.000000,0.000000,0.016224
934,0.000000,0.000000,9.810000,0.000000,0.000000,0.000000,0.016224
935,0.000000,0.000000,9.810000,0.000000,0.000000,0.000000,0.016224
936,0.000000,0.000000,9.810000,0.000000,0.000000,0.000000,0.016224
937,0.000000,0.000000,9.810000,0.000000,0.000000,0.000000,0.016224
938,0.000000,0.000000,9.810000,0.000000,0.000000,0.000000,0.016224
939,0.000000,0.000000,9.810000,0.000000,0.000000,0.000000,0.016224
940,0.000000,0.000000,9.810000,0.000000,0.000000,0.000000,0.016224
941,133.320038,-0.655670,8.007071,0.000000,0.000000,0.000000,0.016224
942,-133.320038,0.655670,11.612930,0.000000,0.000000,0.000000,0.016224
943,133.320663,-0.655685,8.007031,0.000000,0.000000,0.000000,0.016224
944,-133.320663,0.655685,11.612969,0.000000,0.000000,0.000000,0.016224
945,133.319412,-0.655655,8.007031,0.000000,0.000000,0.000000,0.016224
946,-133.319336,0.660660,11.612969,0.000000,0.000000,0.000000,0.016224
947,133.319962,-0.660675,8.007031,0.000000,0.000000,0.000000,0.016224
948,-133.320038,0.655670,11.612969,0.000000,0.000000,0.000000,0.016224
949,133.319336,-0.660660,8.007031,0.000000,0.000000,0.000000,0.016224
950,-133.319336,0.660660,11.612969,0.000000,0.000000,0.000000,0.016224
951,133.333832,0.001694,9.810000,0.000000,0.000000,0.000000,0.016224
952,-133.333832,-0.001694,9.810000,0.000000,0.000000,0.000000,0.016224
953,133.285217,-3.607353,9.581915,0.000000,0.000000,0.000006,0.070628
954,-133.285217,3.607353,10.038086,0.000000,0.000000,0.000006,0.070628
955,133.284775,-3.604820,9.581954,0.000000,0.000000,0.000006,0.070628
956,-0.001423,-0.002406,9.809961,0.000000,0.000000,0.000006,0.070628
957,0.002047,0.002361,9.810040,0.000000,0.000000,0.000006,0.070628
958,-0.002047,-0.002361,9.810000,0.000000,0.000000,0.000006,0.070628
959,0.001694,-0.002626,9.809922,0.000000,0.000000,0.000006,0.070628
960,0.048044,3.610611,10.038125,0.000000,0.000000,0.000006,0.070628
961,0.149466,3.675049,9.792852,0.000000,0.000000,0.000000,0.125031
962,-0.001244,-0.004883,9.810000,0.000000,0.000000,0.000000,0.125031
963,0.001244,0.004883,9.809961,0.000000,0.000000,0.000000,0.125031
964,-0.000624,-0.004961,9.810040,0.000000,0.000000,0.000000,0.125031
965,-0.001240,0.000156,9.810000,0.000000,0.000000,0.000000,0.125031
966,0.001864,0.004805,9.809961,0.000000,0.000000,0.000000,0.125031
967,0.045827,3.572170,9.827188,0.000000,0.000000,0.000000,0.125031
968,0.162172,4.129862,9.809688,-0.000000,0.000000,-0.000012,0.179434
969,0.000446,0.002460,9.810000,-0.000000,0.000000,-0.000012,0.179434
970,-0.000446,-0.002460,9.810000,-0.000000,0.000000,-0.000012,0.179434
971,0.000446,0.002460,9.810000,-0.000000,0.000000,-0.000012,0.179434
972,0.000784,-0.002683,9.810040,-0.000000,0.000000,-0.000012,0.179434
973,0.036032,3.126262,9.810274,-0.000000,0.000000,-0.000012,0.179434
974,0.142186,3.402145,9.809961,0.000000,0.000000,-0.000006,0.233837
975,-0.001216,0.000290,9.810000,0.000000,0.000000,-0.000006,0.233837
976,0.001216,-0.000290,9.810000,0.000000,0.000000,-0.000006,0.233837
977,-0.000579,-0.002432,9.810040,0.000000,0.000000,-0.000006,0.233837
978,-0.001216,0.000290,9.809961,0.000000,0.000000,-0.000006,0.233837
979,0.001216,-0.000290,9.809961,0.000000,0.000000,-0.000006,0.233837
980,0.055312,3.852018,9.810079,0.000000,0.000000,-0.000006,0.233837
981,0.149834,3.741771,9.810000,0.000000,-0.000000,-0.000012,0.288239
982,0.003108,0.001686,9.810000,0.000000,-0.000000,-0.000012,0.288239
983,-0.003108,-0.001686,9.810000,0.000000,-0.000000,-0.000012,0.288239
984,0.000711,0.002397,9.810000,0.000000,-0.000000,-0.000012,0.288239
985,-0.000223,-0.005149,9.810000,0.000000,-0.000000,-0.000012,0.288239
986,-0.000488,0.002752,9.810000,0.000000,-0.000000,-0.000012,0.288239
987,0.045477,3.504133,9.810000,0.000000,-0.000000,-0.000012,0.288239
988,0.164201,4.225457,9.810000,0.000000,-0.000000,-0.000018,0.342642
989,-0.001177,0.000420,9.810000,0.000000,-0.000000,-0.000018,0.342642
990,0.000000,0.000000,9.810000,0.000000,-0.000000,-0.000018,0.342642
991,0.001177,-0.000420,9.810000,0.000000,-0.000000,-0.000018,0.342642
992,-0.001177,0.000420,9.810000,0.000000,-0.000000,-0.000018,0.342642
993,0.036347,3.026201,9.810000,0.000000,-0.000000,-0.000018,0.342642
994,0.143635,3.491031,9.810000,-0.000000,-0.000000,-0.000012,0.397044
995,0.000000,0.000000,9.810000,-0.000000,-0.000000,-0.000012,0.397044
996,0.000000,0.000000,9.810000,-0.000000,-0.000000,-0.000012,0.397044
997,0.000186,-0.002789,9.810000,-0.000000,-0.000000,-0.000012,0.397044
998,0.002119,0.001822,9.810000,-0.000000,-0.000000,-0.000012,0.397044
999,-0.003086,-0.004128,9.810000,-0.000000,-0.000000,-0.000012,0.397044
1000,0.051741,3.759989,9.810000,-0.000000,-0.000000,-0.000012,0.397044
1001,0.156523,3.849910,9.810000,0.000000,0.000000,0.000000,0.451447
1002,0.000034,-0.002795,9.810000,0.000000,0.000000,0.000000,0.451447
1003,-0.002215,-0.001704,9.810000,0.000000,0.000000,0.000000,0.451447
1004,0.002215,0.001704,9.810000,0.000000,0.000000,0.000000,0.451447
1005,0.000034,-0.002795,9.810000,0.000000,0.000000,0.000000,0.451447
1006,0.043367,3.410228,9.810000,0.000000,0.000000,0.000000,0.451447
1007,0.133136,3.152841,9.810000,0.000000,0.000000,0.000000,0.505850
1008,0.001211,0.002187,9.810000,0.000000,0.000000,0.000000,0.505850
1009,-0.000118,-0.002793,9.810000,0.000000,0.000000,0.000000,0.505850
1010,-0.002187,0.001211,9.810000,0.000000,0.000000,0.000000,0.505850
1011,0.004492,0.000370,9.810000,0.000000,0.000000,0.000000,0.505850
1012,-0.004610,-0.003162,9.810000,0.000000,0.000000,0.000000,0.505850
1013,0.063242,4.094659,9.810000,0.000000,0.000000,0.000000,0.505850
1014,0.144066,3.468742,9.810000,0.000000,0.000000,0.000000,0.560253
1015,0.001329,0.002118,9.810000,0.000000,0.000000,0.000000,0.560253
1016,-0.000270,-0.002782,9.810000,0.000000,0.000000,0.000000,0.560253
1017,0.000270,0.002782,9.810000,0.000000,0.000000,0.000000,0.560253
1018,-0.003986,-0.006353,9.810000,0.000000,0.000000,0.000000,0.560253
1019,0.003986,0.006353,9.810000,0.000000,0.000000,0.000000,0.560253
1020,0.055278,3.781191,9.810000,0.000000,0.000000,0.000000,0.560253
1021,0.155374,3.941871,9.810000,0.000000,0.000000,0.000000,0.614655
1022,-0.001442,-0.002042,9.810000,0.000000,0.000000,0.000000,0.614655
1023,-0.001442,-0.002042,9.810000,0.000000,0.000000,0.000000,0.614655
1024,0.001862,0.004806,9.810000,0.000000,0.000000,0.000000,0.614655
1025,-0.001862,-0.004806,9.810000,0.000000,0.000000,0.000000,0.614655
1026,0.042505,3.311604,9.810000,0.000000,0.000000,0.000000,0.614655
1027,0.136955,3.244560,9.810000,0.000000,0.000000,0.000000,0.669057
1028,-0.000981,0.000775,9.810000,0.000000,0.000000,0.000000,0.669057
1029,0.000981,-0.000775,9.810000,0.000000,0.000000,0.000000,0.669057
1030,-0.000981,0.000775,9.810000,0.000000,0.000000,0.000000,0.669057
1031,-0.000570,-0.002736,9.810000,0.000000,0.000000,0.000000,0.669057
1032,0.003671,0.006658,9.810000,0.000000,0.000000,0.000000,0.669057
1033,0.055742,4.000382,9.810000,0.000000,0.000000,0.000000,0.669057
1034,0.186209,3.790565,9.810000,0.000000,0.000000,0.000000,0.731593
1035,0.001670,0.001860,9.810000,0.000000,0.000000,0.000000,0.731593
1036,-0.002600,-0.001025,9.810000,0.000000,0.000000,0.000000,0.731593
1037,0.000930,-0.000835,9.810000,0.000000,0.000000,0.000000,0.731593
1038,-0.000740,-0.002695,9.810000,0.000000,0.000000,0.000000,0.731593
1039,-0.000740,-0.002695,9.810000,0.000000,0.000000,0.000000,0.731593
1040,0.079732,4.551384,9.810000,0.000000,0.000000,0.000000,0.731593
1041,0.284436,5.607548,9.810000,-0.000000,-0.000000,-0.000012,0.803486
1042,0.000000,0.000000,9.810000,-0.000000,-0.000000,-0.000012,0.803486
1043,0.001799,0.001736,9.810000,-0.000000,-0.000000,-0.000012,0.803486
1044,-0.005398,-0.005207,9.810000,-0.000000,-0.000000,-0.000012,0.803486
1045,0.003663,0.007006,9.810000,-0.000000,-0.000000,-0.000012,0.803486
1046,0.059345,3.964676,9.810000,-0.000000,-0.000000,-0.000012,0.803486
1047,0.265161,5.004502,9.810000,0.000000,0.000000,0.000000,0.875379
1048,0.000801,-0.000960,9.810000,0.000000,0.000000,0.000000,0.875379
1049,0.000000,0.000000,9.810000,0.000000,0.000000,0.000000,0.875379
1050,-0.003521,0.000318,9.810000,0.000000,0.000000,0.000000,0.875379
1051,0.001919,0.001602,9.810000,0.000000,0.000000,0.000000,0.875379
1052,0.082362,4.571934,9.810000,0.000000,0.000000,0.000000,0.875379
1053,0.241354,4.395555,9.810000,0.000000,0.000000,0.000000,0.947273
1054,-0.001300,-0.002475,9.810000,0.000000,0.000000,0.000000,0.947273
1055,0.001300,0.002475,9.810000,0.000000,0.000000,0.000000,0.947273
1056,0.000730,-0.001015,9.810000,0.000000,0.000000,0.000000,0.947273
1057,-10.660596,0.414539,9.810000,0.000000,0.000000,0.000000,0.947273
1058,-9.801847,0.380878,9.810000,0.000000,0.000000,0.000000,0.947273
1059,-8.944569,4.391053,9.810000,0.000000,0.000000,0.000000,0.947273
1060,-8.100156,4.033126,9.810000,0.000000,0.000000,0.000000,1.019166
1061,-3.600546,0.126854,9.810000,0.000000,0.000000,0.000000,1.019166
1062,-0.602220,0.019832,9.810000,0.000000,0.000000,0.000000,1.019166
1063,-0.604841,0.024090,9.810000,0.000000,0.000000,0.000000,1.019166
1064,-0.593212,0.019504,9.810000,0.000000,0.000000,0.000000,1.019166
1065,-7.205023,0.260095,9.810000,0.000000,0.000000,0.000000,1.019166
1066,-6.628025,0.233548,9.810000,0.000000,0.000000,0.000000,1.019166
1067,-6.096230,0.223217,9.810000,0.000000,0.000000,0.000000,1.019166
1068,-3.507028,0.122757,9.810000,0.000000,0.000000,0.000000,1.019166
1069,0.042641,2.392176,9.810000,0.000000,0.000000,0.000000,1.019166
1070,0.129639,2.367034,9.810000,0.000000,0.000000,0.000000,1.091059
1071,0.001154,-0.002218,9.810000,0.000000,0.000000,0.000000,1.091059
1072,0.001154,-0.002218,9.810000,0.000000,0.000000,0.000000,1.091059
1073,-0.003372,0.001064,9.810000,0.000000,0.000000,0.000000,1.091059
1074,-66.622078,2.424542,9.810000,0.000000,0.000000,0.000000,1.091059
1075,125.168388,-4.553002,9.810000,0.000000,0.000000,0.000000,1.091059
1076,-125.163948,4.555310,9.810000,0.000000,0.000000,0.000000,1.091059
1077,124.526207,-4.532031,9.810000,0.000000,0.000000,0.000000,1.091059
1078,-124.530647,4.529719,9.810000,0.000000,0.000000,0.000000,1.091059
1079,123.895218,-4.510872,9.810000,0.000000,0.000000,0.000000,1.091059
1080,-123.895218,4.510872,9.810000,0.000000,0.000000,0.000000,1.091059
1081,123.269821,-4.489623,9.810000,0.000000,0.000000,0.000000,1.091059
1082,-123.269821,4.489623,9.810000,0.000000,0.000000,0.000000,1.091059
1083,122.723465,0.000012,9.810000,0.000000,0.000000,0.000000,1.091059
1084,-122.723465,-0.000012,9.810000,0.000000,0.000000,0.000000,1.091059
1085,122.017349,-4.334730,9.810000,0.000000,0.000000,-0.000003,1.162953
1086,-122.017349,4.334730,9.810000,0.000000,0.000000,-0.000003,1.162953
1087,121.385704,-4.316243,9.810000,0.000000,0.000000,-0.000003,1.162953
1088,-121.385704,4.316243,9.810000,0.000000,0.000000,-0.000003,1.162953
1089,120.759956,-4.292486,9.810000,0.000000,0.000000,-0.000003,1.162953
1090,-120.760948,4.294784,9.810000,0.000000,0.000000,-0.000003,1.162953
1091,120.143089,-4.270338,9.810000,0.000000,0.000000,-0.000003,1.162953
1092,-120.142097,4.268044,9.810000,0.000000,0.000000,-0.000003,1.162953
1093,119.519325,-4.251173,9.810000,0.000000,0.000000,-0.000003,1.162953
1094,-119.515709,4.255450,9.810000,0.000000,0.000000,-0.000003,1.162953
1095,-0.003598,-0.004278,9.810000,0.000000,0.000000,-0.000003,1.162953
1096,0.000000,0.000000,9.810000,0.000000,0.000000,-0.000003,1.162953
1097,0.000000,0.000000,9.810000,0.000000,0.000000,-0.000003,1.162953
1098,0.000000,0.000000,9.810000,0.000000,0.000000,-0.000003,1.162953
1099,0.000000,0.000000,9.810000,0.000000,0.000000,-0.000003,1.162953
1100,0.000000,0.000000,9.810000,0.000000,0.000000,-0.000003,1.162953
1101,0.000000,0.000000,9.810000,0.000000,0.000000,-0.000003,1.162953
1102,0.000000,0.000000,9.810000,0.000000,0.000000,-0.000003,1.162953
1103,0.000000,0.000000,9.810000,0.000000,0.000000,-0.000003,1.162953
1104,0.000000,0.000000,9.810000,0.000000,0.000000,-0.000003,1.162953
1105,0.000000,0.000000,9.810000,0.000000,0.000000,-0.000003,1.162953
1106,0.000000,0.000000,9.810000,0.000000,0.000000,-0.000003,1.162953
1107,0.000000,0.000000,9.810000,0.000000,0.000000,-0.000003,1.162953
1108,0.000000,0.000000,9.810000,0.000000,0.000000,-0.000003,1.162953
1109,0.000000,0.000000,9.810000,0.000000,0.000000,-0.000003,1.162953
1110,0.000000,0.000000,9.810000,0.000000,0.000000,-0.000003,1.162953
1111,0.000000,0.000000,9.810000,0.000000,0.000000,-0.000003,1.162953
1112,0.000000,0.000000,9.810000,0.000000,0.000000,-0.000003,1.162953
1113,0.000000,0.000000,9.810000,0.000000,0.000000,-0.000003,1.162953
1114,0.000000,0.000000,9.810000,0.000000,0.000000,-0.000003,1.162953
1115,0.000000,0.000000,9.810000,0.000000,0.000000,-0.000003,1.162953
1116,0.000000,0.000000,9.810000,0.000000,0.000000,-0.000003,1.162953
1117,0.000000,0.000000,9.810000,0.000000,0.000000,-0.000003,1.162953
1118,0.000000,0.000000,9.810000,0.000000,0.000000,-0.000003,1.162953
1119,0.000000,0.000000,9.810000,0.000000,0.000000,-0.000003,1.162953
1120,0.000000,0.000000,9.810000,0.000000,0.000000,-0.000003,1.162953
1121,0.000000,0.000000,9.810000,0.000000,0.000000,-0.000003,1.162953
1122,0.000000,0.000000,9.810000,0.000000,0.000000,-0.000003,1.162953
1123,0.000000,0.000000,9.810000,0.000000,0.000000,-0.000003,1.162953
1124,0.000000,0.000000,9.810000,0.000000,0.000000,-0.000003,1.162953
1125,0.000000,0.000000,9.810000,0.000000,0.000000,-0.000003,1.162953
1126,0.000000,0.000000,9.810000,0.000000,0.000000,-0.000003,1.162953
1127,0.000000,0.000000,9.810000,0.000000,0.000000,-0.000003,1.162953
1128,0.000000,0.000000,9.810000,0.000000,0.000000,-0.000003,1.162953
1129,0.000000,0.000000,9.810000,0.000000,0.000000,-0.000003,1.162953
1130,0.000000,0.000000,9.810000,0.000000,0.000000,-0.000003,1.162953
1131,0.000000,0.000000,9.810000,0.000000,0.000000,-0.000003,1.162953
1132,0.000000,0.000000,9.810000,0.000000,0.000000,-0.000003,1.162953
1133,0.000000,0.000000,9.810000,0.000000,0.000000,-0.000003,1.162953
1134,0.000000,0.000000,9.810000,0.000000,0.000000,-0.000003,1.162953
1135,0.000000,0.000000,9.810000,0.000000,0.000000,-0.000003,1.162953
1136,0.000000,0.000000,9.810000,0.000000,0.000000,-0.000003,1.162953
1137,0.000000,0.000000,9.810000,0.000000,0.000000,-0.000003,1.162953
1138,0.000000,0.000000,9.810000,0.000000,0.000000,-0.000003,1.162953
1139,0.000000,0.000000,9.810000,0.000000,0.000000,-0.000003,1.162953
1140,0.000000,0.000000,9.810000,0.000000,0.000000,-0.000003,1.162953
1141,0.000000,0.000000,9.810000,0.000000,0.000000,-0.000003,1.162953
1142,0.000000,0.000000,9.810000,0.000000,0.000000,-0.000003,1.162953
1143,0.000000,0.000000,9.810000,0.000000,0.000000,-0.000003,1.162953
1144,0.000000,0.000000,9.810000,0.000000,0.000000,-0.000003,1.162953
1145,0.000000,0.000000,9.810000,0.000000,0.000000,-0.000003,1.162953
1146,0.000000,0.000000,9.810000,0.000000,0.000000,-0.000003,1.162953
1147,0.000000,0.000000,9.810000,0.000000,0.000000,-0.000003,1.162953
1148,0.000000,0.000000,9.810000,0.000000,0.000000,-0.000003,1.162953
1149,0.000000,0.000000,9.810000,0.000000,0.000000,-0.000003,1.162953
1150,0.000000,0.000000,9.810000,0.000000,0.000000,-0.000003,1.162953
1151,0.000000,0.000000,9.810000,0.000000,0.000000,-0.000003,1.162953
1152,0.000000,0.000000,9.810000,0.000000,0.000000,-0.000003,1.162953
1153,0.000000,0.000000,9.810000,0.000000,0.000000,-0.000003,1.162953
1154,0.000000,0.000000,9.810000,0.000000,0.000000,-0.000003,1.162953
1155,0.000000,0.000000,9.810000,0.000000,0.000000,-0.000003,1.162953
1156,0.000000,0.000000,9.810000,0.000000,0.000000,-0.000003,1.162953
1157,0.000000,0.000000,9.810000,0.000000,0.000000,-0.000003,1.162953
1158,0.000000,0.000000,9.810000,0.000000,0.000000,-0.000003,1.162953
1159,0.000000,0.000000,9.810000,0.000000,0.000000,-0.000003,1.162953
1160,0.000000,0.000000,9.810000,0.000000,0.000000,-0.000003,1.162953
1161,0.000000,0.000000,9.810000,0.000000,0.000000,-0.000003,1.162953
1162,0.000000,0.000000,9.810000,0.000000,0.000000,-0.000003,1.162953
1163,0.000000,0.000000,9.810000,0.000000,0.000000,-0.000003,1.162953
1164,0.000000,0.000000,9.810000,0.000000,0.000000,-0.000003,1.162953
1165,0.000000,0.000000,9.810000,0.000000,0.000000,-0.000003,1.162953
1166,0.000000,0.000000,9.810000,0.000000,0.000000,-0.000003,1.162953
1167,0.000000,0.000000,9.810000,0.000000,0.000000,-0.000003,1.162953
1168,0.000000,0.000000,9.810000,0.000000,0.000000,-0.000003,1.162953
1169,0.000000,0.000000,9.810000,0.000000,0.000000,-0.000003,1.162953
1170,0.000000,0.000000,9.810000,0.000000,0.000000,-0.000003,1.162953
1171,0.000000,0.000000,9.810000,0.000000,0.000000,-0.000003,1.162953
1172,0.000000,0.000000,9.810000,0.000000,0.000000,-0.000003,1.162953
1173,0.000000,0.000000,9.810000,0.000000,0.000000,-0.000003,1.162953
1174,0.000000,0.000000,9.810000,0.000000,0.000000,-0.000003,1.162953
1175,0.000000,0.000000,9.810000,0.000000,0.000000,-0.000003,1.162953
1176,0.000000,0.000000,9.810000,0.000000,0.000000,-0.000003,1.162953
1177,0.000000,0.000000,9.810000,0.000000,0.000000,-0.000003,1.162953
1178,0.000000,0.000000,9.810000,0.000000,0.000000,-0.000003,1.162953
1179,0.000000,0.000000,9.810000,0.000000,0.000000,-0.000003,1.162953
1180,0.000000,0.000000,9.810000,0.000000,0.000000,-0.000003,1.162953
1181,0.000000,0.000000,9.810000,0.000000,0.000000,-0.000003,1.162953
1182,0.000000,0.000000,9.810000,0.000000,0.000000,-0.000003,1.162953
1183,0.000000,0.000000,9.810000,0.000000,0.000000,-0.000003,1.162953
1184,0.000000,0.000000,9.810000,0.000000,0.000000,-0.000003,1.162953
1185,0.000000,0.000000,9.810000,0.000000,0.000000,-0.000003,1.162953
1186,0.000000,0.000000,9.810000,0.000000,0.000000,-0.000003,1.162953
1187,0.000000,0.000000,9.810000,0.000000,0.000000,-0.000003,1.162953
1188,0.000000,0.000000,9.810000,0.000000,0.000000,-0.000003,1.162953
1189,0.000000,0.000000,9.810000,0.000000,0.000000,-0.000003,1.162953
1190,0.000000,0.000000,9.810000,0.000000,0.000000,-0.000003,1.162953
1191,0.000000,0.000000,9.810000,0.000000,0.000000,-0.000003,1.162953
1192,0.000000,0.000000,9.810000,0.000000,0.000000,-0.000003,1.162953
1193,0.000000,0.000000,9.810000,0.000000,0.000000,-0.000003,1.162953
1194,0.000000,0.000000,9.810000,0.000000,0.000000,-0.000003,1.162953
1195,0.000000,0.000000,9.810000,0.000000,0.000000,-0.000003,1.162953
1196,0.000000,0.000000,9.810000,0.000000,0.000000,-0.000003,1.162953
1197,0.000000,0.000000,9.810000,0.000000,0.000000,-0.000003,1.162953
1198,0.000000,0.000000,9.810000,0.000000,0.000000,-0.000003,1.162953
1199,0.000000,0.000000,9.810000,0.000000,0.000000,-0.000003,1.162953
1200,0.000000,0.000000,9.810000,0.000000,0.000000,-0.000003,1.162953
1201,0.000000,0.000000,9.810000,0.000000,0.000000,-0.000003,1.162953
1202,0.000000,0.000000,9.810000,0.000000,0.000000,-0.000003,1.162953
1203,0.000000,0.000000,9.810000,0.000000,0.000000,-0.000003,1.162953
1204,0.000000,0.000000,9.810000,0.000000,0.000000,-0.000003,1.162953
1205,118.906723,-4.232631,9.810000,0.000000,0.000000,-0.000003,1.162953
1206,-118.906723,4.232631,9.810000,0.000000,0.000000,-0.000003,1.162953
1207,118.372925,0.003075,9.810000,0.000000,0.000000,-0.000003,1.162953
1208,-118.372925,-0.003075,9.810000,0.000000,0.000000,-0.000003,1.162953
1209,0.000000,0.000000,9.810000,0.000000,0.000000,-0.000003,1.162953
1210,0.000000,0.000000,9.810000,0.000000,0.000000,-0.000003,1.162953
1211,0.000000,0.000000,9.810000,0.000000,0.000000,-0.000003,1.162953
1212,0.000000,0.000000,9.810000,0.000000,0.000000,-0.000003,1.162953
1213,0.000000,0.000000,9.810000,0.000000,0.000000,-0.000003,1.162953
1214,0.000000,0.000000,9.810000,0.000000,0.000000,-0.000003,1.162953
1215,0.000000,0.000000,9.810000,0.000000,0.000000,-0.000003,1.162953
1216,0.000000,0.000000,9.810000,0.000000,0.000000,-0.000003,1.162953
1217,0.000000,0.000000,9.810000,0.000000,0.000000,-0.000003,1.162953
1218,0.000000,0.000000,9.810000,0.000000,0.000000,-0.000003,1.162953
1219,0.000000,0.000000,9.810000,0.000000,0.000000,-0.000003,1.162953
1220,0.000000,0.000000,9.810000,0.000000,0.000000,-0.000003,1.162953
1221,0.000000,0.000000,9.810000,0.000000,0.000000,-0.000003,1.162953
1222,0.000000,0.000000,9.810000,0.000000,0.000000,-0.000003,1.162953
1223,0.000000,0.000000,9.810000,0.000000,0.000000,-0.000003,1.162953
1224,0.000000,0.000000,9.810000,0.000000,0.000000,-0.000003,1.162953
1225,0.000000,0.000000,9.810000,0.000000,0.000000,-0.000003,1.162953
1226,0.000000,0.000000,9.810000,0.000000,0.000000,-0.000003,1.162953
1227,0.000000,0.000000,9.810000,0.000000,0.000000,-0.000003,1.162953
1228,0.000000,0.000000,9.810000,0.000000,0.000000,-0.000003,1.162953
1229,0.000000,0.000000,9.810000,0.000000,0.000000,-0.000003,1.162953
1230,0.000000,0.000000,9.810000,0.000000,0.000000,-0.000003,1.162953
1231,0.000000,0.000000,9.810000,0.000000,0.000000,-0.000003,1.162953
1232,0.000000,0.000000,9.810000,0.000000,0.000000,-0.000003,1.162953
1233,0.000000,0.000000,9.810000,0.000000,0.000000,-0.000003,1.162953
1234,0.000000,0.000000,9.810000,0.000000,0.000000,-0.000003,1.162953
1235,0.000000,0.000000,9.810000,0.000000,0.000000,-0.000003,1.162953
1236,0.000000,0.000000,9.810000,0.000000,0.000000,-0.000003,1.162953
1237,0.000000,0.000000,9.810000,0.000000,0.000000,-0.000003,1.162953
1238,0.000000,0.000000,9.810000,0.000000,0.000000,-0.000003,1.162953
1239,0.000000,0.000000,9.810000,0.000000,0.000000,-0.000003,1.162953
1240,0.000000,0.000000,9.810000,0.000000,0.000000,-0.000003,1.162953
1241,0.000000,0.000000,9.810000,0.000000,0.000000,-0.000003,1.162953
1242,0.000000,0.000000,9.810000,0.000000,0.000000,-0.000003,1.162953
1243,117.681000,-4.230980,9.810000,0.000000,0.000000,0.000000,1.234845
1244,-117.681000,4.230980,9.810000,0.000000,0.000000,0.000000,1.234845
1245,0.000000,0.000000,9.810000,0.000000,0.000000,0.000000,1.234845
1246,0.000000,0.000000,9.810000,0.000000,0.000000,0.000000,1.234845
1247,117.068687,-4.206469,9.810000,0.000000,0.000000,0.000000,1.234845
1248,-117.068687,4.206469,9.810000,0.000000,0.000000,0.000000,1.234845
1249,0.000000,0.000000,9.810000,0.000000,0.000000,0.000000,1.234845
1250,116.457199,-4.184311,9.810000,0.000000,0.000000,0.000000,1.234845
1251,-116.457199,4.184311,9.810000,0.000000,0.000000,0.000000,1.234845
1252,115.852081,-4.165236,9.810000,0.000000,0.000000,0.000000,1.234845
1253,-115.852905,4.167594,9.810000,0.000000,0.000000,0.000000,1.234845
1254,115.246971,-4.146152,9.810000,0.000000,0.000000,0.000000,1.234845
1255,-115.246147,4.143793,9.810000,0.000000,0.000000,0.000000,1.234845
1256,114.652824,-4.120597,9.810000,0.000000,0.000000,0.000000,1.234845
1257,-114.652824,4.120597,9.810000,0.000000,0.000000,0.000000,1.234845
1258,114.127014,0.001497,9.810000,0.000000,0.000000,0.000000,1.234845
1259,-114.127014,-0.001497,9.810000,0.000000,0.000000,0.000000,1.234845
1260,113.443268,-4.429873,9.810000,-0.000000,-0.000000,-0.000003,1.306739
1261,-113.443268,4.429873,9.810000,-0.000000,-0.000000,-0.000003,1.306739
1262,112.850876,-4.403575,9.810000,-0.000000,-0.000000,-0.000003,1.306739
1263,-112.850876,4.403575,9.810000,-0.000000,-0.000000,-0.000003,1.306739
1264,112.256714,-4.380348,9.810000,-0.000000,-0.000000,-0.000003,1.306739
1265,-112.256714,4.380348,9.810000,-0.000000,-0.000000,-0.000003,1.306739
1266,111.665627,-4.358878,9.810000,-0.000000,-0.000000,-0.000003,1.306739
1267,-111.665627,4.358878,9.810000,-0.000000,-0.000000,-0.000003,1.306739
1268,111.078705,-4.333691,9.810000,-0.000000,-0.000000,-0.000003,1.306739
1269,-111.078705,4.333691,9.810000,-0.000000,-0.000000,-0.000003,1.306739
1270,110.497917,-4.312024,9.810000,-0.000000,-0.000000,-0.000003,1.306739
1271,-110.498566,4.314440,9.810000,-0.000000,-0.000000,-0.000003,1.306739
1272,109.919090,-4.297598,9.810000,-0.000000,-0.000000,-0.000003,1.306739
1273,-109.918442,4.295186,9.810000,-0.000000,-0.000000,-0.000003,1.306739
1274,109.427063,0.003050,9.810000,-0.000000,-0.000000,-0.000003,1.306739
1275,-109.427063,-0.003050,9.810000,-0.000000,-0.000000,-0.000003,1.306739
1276,108.783745,-3.829521,9.810000,0.000000,0.000000,0.000000,1.378632
1277,-108.784218,3.831975,9.810000,0.000000,0.000000,0.000000,1.378632
1278,108.204796,-3.812270,9.810000,0.000000,0.000000,0.000000,1.378632
1279,-108.204315,3.809815,9.810000,0.000000,0.000000,0.000000,1.378632
1280,107.634705,-3.788206,9.810000,0.000000,0.000000,0.000000,1.378632
1281,-107.632248,3.788685,9.810000,0.000000,0.000000,0.000000,1.378632
1282,107.061134,-3.772460,9.810000,0.000000,0.000000,0.000000,1.378632
1283,-107.063591,3.771981,9.810000,0.000000,0.000000,0.000000,1.378632
1284,106.496437,-3.749891,9.810000,0.000000,0.000000,0.000000,1.378632
1285,-0.556865,0.021544,9.810000,0.000000,0.000000,0.000000,1.378632
1286,-0.563272,0.015204,9.810000,0.000000,0.000000,0.000000,1.378632
1287,-0.493422,3.714130,9.810000,0.000000,0.000000,0.000000,1.378632
1288,-0.343501,3.967447,9.810000,0.000000,0.000000,0.000000,1.450525
1289,-0.555925,0.015914,9.810000,0.000000,0.000000,0.000000,1.450525
1290,-0.551261,0.018996,9.810000,0.000000,0.000000,0.000000,1.450525
1291,-0.548479,0.016814,9.810000,0.000000,0.000000,0.000000,1.450525
1292,-0.546597,0.022078,9.810000,0.000000,0.000000,0.000000,1.450525
1293,-0.543516,0.017414,9.810000,0.000000,0.000000,0.000000,1.450525
1294,-0.541034,0.017714,9.810000,0.000000,0.000000,0.000000,1.450525
1295,-0.475819,3.457890,9.810000,0.000000,0.000000,0.000000,1.450525
1296,-0.342564,3.560099,9.810000,0.000000,0.000000,0.000000,1.522418
1297,-0.536550,0.019075,9.810000,0.000000,0.000000,0.000000,1.522418
1298,-0.529059,0.019438,9.810000,0.000000,0.000000,0.000000,1.522418
1299,-0.529059,0.019438,9.810000,0.000000,0.000000,0.000000,1.522418
1300,-0.523944,0.017183,9.810000,0.000000,0.000000,0.000000,1.522418
1301,-0.524065,0.019680,9.810000,0.000000,0.000000,0.000000,1.522418
1302,-0.519192,0.022419,9.810000,0.000000,0.000000,0.000000,1.522418
1303,-0.518708,0.012430,9.810000,0.000000,0.000000,0.000000,1.522418
1304,-0.446232,3.530051,9.810000,0.000000,0.000000,0.000000,1.522418
1305,-0.353242,4.731435,9.810000,0.000000,0.000000,0.000000,1.581211
1306,-0.507472,0.005286,9.810000,0.000000,0.000000,0.000000,1.581211
1307,-0.512472,0.005338,9.810000,0.000000,0.000000,0.000000,1.581211
1308,-0.499999,0.002708,9.810000,0.000000,0.000000,0.000000,1.581211
1309,-0.502447,0.007733,9.810000,0.000000,0.000000,0.000000,1.581211
1310,-0.499947,0.007707,9.810000,0.000000,0.000000,0.000000,1.581211
1311,-0.497525,0.000182,9.810000,0.000000,0.000000,0.000000,1.581211
1312,-0.492499,0.002629,9.810000,0.000000,0.000000,0.000000,1.581211
1313,-0.492447,0.007629,9.810000,0.000000,0.000000,0.000000,1.581211
1314,-0.487500,0.002577,9.810000,0.000000,0.000000,0.000000,1.581211
1315,-0.487448,0.007577,9.810000,0.000000,0.000000,0.000000,1.581211
1316,-0.485000,0.002551,9.810000,0.000000,0.000000,0.000000,1.581211
1317,-0.482500,0.002525,9.810000,0.000000,0.000000,0.000000,1.581211
1318,-0.477448,0.007473,9.810000,0.000000,0.000000,0.000000,1.581211
1319,-0.472474,0.004921,9.810000,0.000000,0.000000,0.000000,1.581211
1320,-0.480000,0.002499,9.810000,0.000000,0.000000,0.000000,1.581211
1321,-0.467475,0.004869,9.810000,0.000000,0.000000,0.000000,1.581211
1322,-0.465001,0.002343,9.810000,0.000000,0.000000,0.000000,1.581211
1323,-0.469948,0.007395,9.810000,0.000000,0.000000,0.000000,1.581211
1324,-0.456591,0.809799,9.810000,0.000000,0.000000,0.000000,1.581211
1325,-0.463907,-0.372689,9.810000,0.000000,0.000000,0.000000,1.581211
1326,-0.453622,0.374745,9.810000,0.000000,0.000000,0.000000,1.581211
1327,48.227356,-0.024780,9.810000,0.000000,0.000000,0.000000,1.581211
1328,0.000000,0.000000,9.810000,0.000000,0.000000,0.000000,1.581211
1329,-0.000026,-0.002500,9.810000,0.000000,0.000000,0.000000,1.581211
1330,0.000052,0.005000,9.810000,0.000000,0.000000,0.000000,1.581211
1331,-0.000026,-0.002500,9.810000,0.000000,0.000000,0.000000,1.581211
1332,0.002474,-0.002526,9.810000,0.000000,0.000000,0.000000,1.581211
1333,-0.004974,0.002552,9.810000,0.000000,0.000000,0.000000,1.581211
1334,0.004974,-0.002552,9.810000,0.000000,0.000000,0.000000,1.581211
1335,-0.004974,0.002552,9.810000,0.000000,0.000000,0.000000,1.581211
1336,0.005026,0.002448,9.810000,0.000000,0.000000,0.000000,1.581211
1337,-0.000052,-0.005000,9.810000,0.000000,0.000000,0.000000,1.581211
1338,0.000052,0.005000,9.810000,0.000000,0.000000,0.000000,1.581211
1339,0.002474,-0.002526,9.810000,0.000000,0.000000,0.000000,1.581211
1340,-0.002526,-0.002474,9.810000,0.000000,0.000000,0.000000,1.581211
1341,0.000286,0.027499,9.810000,0.000000,0.000000,0.000000,1.581211
1342,-0.000052,-0.005000,9.810000,0.000000,0.000000,0.000000,1.581211
1343,-0.002448,0.005026,9.810000,0.000000,0.000000,0.000000,1.581211
1344,0.002474,-0.002526,9.810000,0.000000,0.000000,0.000000,1.581211
1345,0.002500,-0.000026,9.810000,0.000000,0.000000,0.000000,1.581211
1346,-0.002500,0.000026,9.810000,0.000000,0.000000,0.000000,1.581211
1347,-0.002474,0.002526,9.810000,0.000000,0.000000,0.000000,1.581211
1348,0.002474,-0.002526,9.810000,0.000000,0.000000,0.000000,1.581211
1349,0.000000,0.000000,9.810000,0.000000,0.000000,0.000000,1.581211
1350,0.000000,0.000000,9.810000,0.000000,0.000000,0.000000,1.581211
1351,-0.000026,-0.002500,9.810000,0.000000,0.000000,0.000000,1.581211
1352,0.002500,-0.000026,9.810000,0.000000,0.000000,0.000000,1.581211
1353,-0.004974,0.002552,9.810000,0.000000,0.000000,0.000000,1.581211
1354,0.002500,-0.000026,9.810000,0.000000,0.000000,0.000000,1.581211
1355,-0.000026,-0.002500,9.810000,0.000000,0.000000,0.000000,1.581211
1356,0.000052,0.005000,9.810000,0.000000,0.000000,0.000000,1.581211
1357,-0.000026,-0.002500,9.810000,0.000000,0.000000,0.000000,1.581211
1358,0.000026,0.002500,9.810000,0.000000,0.000000,0.000000,1.581211
1359,-0.002500,0.000026,9.810000,0.000000,0.000000,0.000000,1.581211
1360,0.004974,-0.002552,9.810000,0.000000,0.000000,0.000000,1.581211
1361,-0.002474,0.002526,9.810000,0.000000,0.000000,0.000000,1.581211
1362,-0.000026,-0.002500,9.810000,0.000000,0.000000,0.000000,1.581211
1363,0.000026,0.002500,9.810000,0.000000,0.000000,0.000000,1.581211
1364,-0.002526,-0.002474,9.810000,0.000000,0.000000,0.000000,1.581211
1365,0.002526,0.002474,9.810000,0.000000,0.000000,0.000000,1.581211
1366,-0.000026,-0.002500,9.810000,0.000000,0.000000,0.000000,1.581211
1367,0.002500,-0.000026,9.810000,0.000000,0.000000,0.000000,1.581211
1368,-0.002500,0.000026,9.810000,0.000000,0.000000,0.000000,1.581211
1369,-0.002500,0.000026,9.810000,0.000000,0.000000,0.000000,1.581211
1370,0.002526,0.002474,9.810000,0.000000,0.000000,0.000000,1.581211
1371,-0.000026,-0.002500,9.810000,0.000000,0.000000,0.000000,1.581211
1372,0.001276,0.002487,9.810000,0.000000,0.000000,0.000000,1.581211
1373,-0.001276,-0.002487,9.810000,0.000000,0.000000,0.000000,1.581211
1374,-0.001250,0.000013,9.810000,0.000000,0.000000,0.000000,1.581211
1375,0.000052,0.005000,9.810000,0.000000,0.000000,0.000000,1.581211
1376,0.002448,-0.005026,9.810000,0.000000,0.000000,0.000000,1.581211
1377,-0.001224,0.002513,9.810000,0.000000,0.000000,0.000000,1.581211
1378,0.001224,-0.002513,9.810000,0.000000,0.000000,0.000000,1.581211
1379,-0.002474,0.002526,9.810000,0.000000,0.000000,0.000000,1.581211
1380,-0.001276,-0.002487,9.810000,0.000000,0.000000,0.000000,1.581211
1381,0.003776,0.002461,9.810000,0.000000,0.000000,0.000000,1.581211
1382,-0.001276,-0.002487,9.810000,0.000000,0.000000,0.000000,1.581211
1383,0.001250,-0.000013,9.810000,0.000000,0.000000,0.000000,1.581211
1384,-0.001224,0.002513,9.810000,0.000000,0.000000,0.000000,1.581211
1385,-0.001276,-0.002487,9.810000,0.000000,0.000000,0.000000,1.581211
1386,0.000026,0.002500,9.810000,0.000000,0.000000,0.000000,1.581211
1387,0.002474,-0.002526,9.810000,0.000000,0.000000,0.000000,1.581211
1388,-0.001224,0.002513,9.810000,0.000000,0.000000,0.000000,1.581211
1389,0.001224,-0.002513,9.810000,0.000000,0.000000,0.000000,1.581211
1390,-0.002474,0.002526,9.810000,0.000000,0.000000,0.000000,1.581211
1391,-0.000026,-0.002500,9.810000,0.000000,0.000000,0.000000,1.581211
1392,0.001276,0.002487,9.810000,0.000000,0.000000,0.000000,1.581211
1393,0.001224,-0.002513,9.810000,0.000000,0.000000,0.000000,1.581211
1394,-0.001224,0.002513,9.810000,0.000000,0.000000,0.000000,1.581211
1395,0.001224,-0.002513,9.810000,0.000000,0.000000,0.000000,1.581211
1396,-0.002474,0.002526,9.810000,0.000000,0.000000,0.000000,1.581211
1397,-0.001276,-0.002487,9.810000,0.000000,0.000000,0.000000,1.581211
1398,0.003776,0.002461,9.810000,0.000000,0.000000,0.000000,1.581211
1399,-0.001276,-0.002487,9.810000,0.000000,0.000000,0.000000,1.581211
1400,0.001250,-0.000013,9.810000,0.000000,0.000000,0.000000,1.581211
1401,-0.002474,0.002526,9.810000,0.000000,0.000000,0.000000,1.581211
1402,-0.000026,-0.002500,9.810000,0.000000,0.000000,0.000000,1.581211
1403,0.001276,0.002487,9.810000,0.000000,0.000000,0.000000,1.581211
1404,0.001224,-0.002513,9.810000,0.000000,0.000000,0.000000,1.581211
1405,-0.001224,0.002513,9.810000,0.000000,0.000000,0.000000,1.581211
1406,-0.001276,-0.002487,9.810000,0.000000,0.000000,0.000000,1.581211
1407,0.001276,0.002487,9.810000,0.000000,0.000000,0.000000,1.581211
1408,-0.001276,-0.002487,9.810000,0.000000,0.000000,0.000000,1.581211
1409,0.001276,0.002487,9.810000,0.000000,0.000000,0.000000,1.581211
1410,-0.002526,-0.002474,9.810000,0.000000,0.000000,0.000000,1.581211
1411,0.002526,0.002474,9.810000,0.000000,0.000000,0.000000,1.581211
1412,-0.000026,-0.002500,9.810000,0.000000,0.000000,0.000000,1.581211
1413,0.000026,0.002500,9.810000,0.000000,0.000000,0.000000,1.581211
1414,-0.001302,-0.004987,9.810000,0.000000,0.000000,0.000000,1.581211
1415,0.001302,0.004987,9.810000,0.000000,0.000000,0.000000,1.581211
1416,-0.001276,-0.002487,9.810000,0.000000,0.000000,0.000000,1.581211
1417,0.001276,0.002487,9.810000,0.000000,0.000000,0.000000,1.581211
1418,-0.001276,-0.002487,9.810000,0.000000,0.000000,0.000000,1.581211
1419,0.000026,0.002500,9.810000,0.000000,0.000000,0.000000,1.581211
1420,0.001224,-0.002513,9.810000,0.000000,0.000000,0.000000,1.581211
1421,-0.001224,0.002513,9.810000,0.000000,0.000000,0.000000,1.581211
1422,0.001224,-0.002513,9.810000,0.000000,0.000000,0.000000,1.581211
1423,-0.001250,0.000013,9.810000,0.000000,0.000000,0.000000,1.581211
1424,0.000026,0.002500,9.810000,0.000000,0.000000,0.000000,1.581211
1425,0.000000,0.000000,9.810000,0.000000,0.000000,0.000000,1.581211
1426,0.001250,-0.000013,9.810000,0.000000,0.000000,0.000000,1.581211
1427,-0.000052,-0.005000,9.810000,0.000000,0.000000,0.000000,1.581211
1428,-0.001198,0.005013,9.810000,0.000000,0.000000,0.000000,1.581211
1429,-0.000026,-0.002500,9.810000,0.000000,0.000000,0.000000,1.581211
1430,0.000000,0.000000,9.810000,0.000000,0.000000,0.000000,1.581211
1431,0.001250,-0.000013,9.810000,0.000000,0.000000,0.000000,1.581211
1432,-0.001224,0.002513,9.810000,0.000000,0.000000,0.000000,1.581211
1433,-0.000026,-0.002500,9.810000,0.000000,0.000000,0.000000,1.581211
1434,0.000026,0.002500,9.810000,0.000000,0.000000,0.000000,1.581211
1435,-0.000026,-0.002500,9.810000,0.000000,0.000000,0.000000,1.581211
1436,0.000026,0.002500,9.810000,0.000000,0.000000,0.000000,1.581211
1437,-0.001276,-0.002487,9.810000,0.000000,0.000000,0.000000,1.581211
1438,0.001276,0.002487,9.810000,0.000000,0.000000,0.000000,1.581211
1439,-0.000026,-0.002500,9.810000,0.000000,0.000000,0.000000,1.581211
1440,0.000026,0.002500,9.810000,0.000000,0.000000,0.000000,1.581211
1441,0.000000,0.000000,9.810000,0.000000,0.000000,0.000000,1.581211
1442,-0.000026,-0.002500,9.810000,0.000000,0.000000,0.000000,1.581211
1443,0.000000,0.000000,9.810000,0.000000,0.000000,0.000000,1.581211
1444,0.000026,0.002500,9.810000,0.000000,0.000000,0.000000,1.581211
1445,-0.000026,-0.002500,9.810000,0.000000,0.000000,0.000000,1.581211
1446,0.000000,0.000000,9.810000,0.000000,0.000000,0.000000,1.581211
1447,0.000026,0.002500,9.810000,0.000000,0.000000,0.000000,1.581211
1448,-0.000026,-0.002500,9.810000,0.000000,0.000000,0.000000,1.581211
1449,-0.000599,0.002506,9.810000,0.000000,0.000000,0.000000,1.581211
1450,0.000599,-0.002506,9.810000,0.000000,0.000000,0.000000,1.581211
1451,0.000026,0.002500,9.810000,0.000000,0.000000,0.000000,1.581211
1452,-0.000026,-0.002500,9.810000,0.000000,0.000000,0.000000,1.581211
1453,0.000026,0.002500,9.810000,0.000000,0.000000,0.000000,1.581211
1454,0.000000,0.000000,9.810000,0.000000,0.000000,0.000000,1.581211
1455,-0.000651,-0.002493,9.810000,0.000000,0.000000,0.000000,1.581211
1456,0.000625,-0.000007,9.810000,0.000000,0.000000,0.000000,1.581211
1457,0.000026,0.002500,9.810000,0.000000,0.000000,0.000000,1.581211
1458,-0.000026,-0.002500,9.810000,0.000000,0.000000,0.000000,1.581211
1459,0.000026,0.002500,9.810000,0.000000,0.000000,0.000000,1.581211
1460,-0.000026,-0.002500,9.810000,0.000000,0.000000,0.000000,1.581211
1461,0.000000,0.000000,9.810000,0.000000,0.000000,0.000000,1.581211
1462,-0.000599,0.002506,9.810000,0.000000,0.000000,0.000000,1.581211
1463,0.000599,-0.002506,9.810000,0.000000,0.000000,0.000000,1.581211
1464,0.000026,0.002500,9.810000,0.000000,0.000000,0.000000,1.581211
1465,-0.000026,-0.002500,9.810000,0.000000,0.000000,0.000000,1.581211
1466,0.000052,0.005000,9.810000,0.000000,0.000000,0.000000,1.581211
1467,-0.000052,-0.005000,9.810000,0.000000,0.000000,0.000000,1.581211
1468,0.000026,0.002500,9.810000,0.000000,0.000000,0.000000,1.581211
1469,-0.000651,-0.002493,9.810000,0.000000,0.000000,0.000000,1.581211
1470,0.000625,-0.000007,9.810000,0.000000,0.000000,0.000000,1.581211
1471,-0.000625,0.000007,9.810000,0.000000,0.000000,0.000000,1.581211
1472,0.000651,0.002493,9.810000,0.000000,0.000000,0.000000,1.581211
1473,-0.000677,-0.004993,9.810000,0.000000,0.000000,0.000000,1.581211
1474,0.000677,0.004993,9.810000,0.000000,0.000000,0.000000,1.581211
1475,-0.000026,-0.002500,9.810000,0.000000,0.000000,0.000000,1.581211
1476,-0.000599,0.002506,9.810000,0.000000,0.000000,0.000000,1.581211
1477,0.000599,-0.002506,9.810000,0.000000,0.000000,0.000000,1.581211
1478,-0.000599,0.002506,9.810000,0.000000,0.000000,0.000000,1.581211
1479,0.000599,-0.002506,9.810000,0.000000,0.000000,0.000000,1.581211
1480,-0.000599,0.002506,9.810000,0.000000,0.000000,0.000000,1.581211
1481,0.000599,-0.002506,9.810000,0.000000,0.000000,0.000000,1.581211
1482,-0.000599,0.002506,9.810000,0.000000,0.000000,0.000000,1.581211
1483,0.000625,-0.000007,9.810000,0.000000,0.000000,0.000000,1.581211
1484,-0.000026,-0.002500,9.810000,0.000000,0.000000,0.000000,1.581211
1485,0.000026,0.002500,9.810000,0.000000,0.000000,0.000000,1.581211
1486,-0.000651,-0.002493,9.810000,0.000000,0.000000,0.000000,1.581211
1487,0.000651,0.002493,9.810000,0.000000,0.000000,0.000000,1.581211
1488,-0.000677,-0.004993,9.810000,0.000000,0.000000,0.000000,1.581211
1489,0.000677,0.004993,9.810000,0.000000,0.000000,0.000000,1.581211
1490,-0.000026,-0.002500,9.810000,0.000000,0.000000,0.000000,1.581211
1491,0.000026,0.002500,9.810000,0.000000,0.000000,0.000000,1.581211
1492,-0.000651,-0.002493,9.810000,0.000000,0.000000,0.000000,1.581211
1493,0.000651,0.002493,9.810000,0.000000,0.000000,0.000000,1.581211
1494,-0.000339,-0.002497,9.810000,0.000000,0.000000,0.000000,1.581211
1495,0.000339,0.002497,9.810000,0.000000,0.000000,0.000000,1.581211
1496,0.000000,0.000000,9.810000,0.000000,0.000000,0.000000,1.581211
1497,-0.000339,-0.002497,9.810000,0.000000,0.000000,0.000000,1.581211
1498,0.000026,0.002500,9.810000,0.000000,0.000000,0.000000,1.581211
1499,-0.000026,-0.002500,9.810000,0.000000,0.000000,0.000000,1.581211
1500,0.000026,0.002500,9.810000,0.000000,0.000000,0.000000,1.581211
1501,-0.000026,-0.002500,9.810000,0.000000,0.000000,0.000000,1.581211
1502,0.000026,0.002500,9.810000,0.000000,0.000000,0.000000,1.581211
1503,-0.000052,-0.005000,9.810000,0.000000,0.000000,0.000000,1.581211
1504,0.000365,0.004996,9.810000,0.000000,0.000000,0.000000,1.581211
1505,0.000026,0.070006,9.810000,0.000000,0.000000,0.000000,1.584565
1506,0.000347,0.002495,9.810000,0.000000,0.000000,0.000000,1.584565
1507,-0.000347,-0.002495,9.810000,0.000000,0.000000,0.000000,1.584565
1508,0.000156,-0.000002,9.810000,0.000000,0.000000,0.000000,1.584565
1509,-0.000122,0.002502,9.810000,0.000000,0.000000,0.000000,1.584565
1510,0.000122,-0.002502,9.810000,0.000000,0.000000,0.000000,1.584565
1511,0.000000,0.000000,9.810000,0.000000,0.000000,0.000000,1.584565
1512,0.000034,0.002500,9.810000,0.000000,0.000000,0.000000,1.584565
1513,-0.000191,-0.002498,9.810000,0.000000,0.000000,0.000000,1.584565
1514,0.000034,0.002500,9.810000,0.000000,0.000000,0.000000,1.584565
1515,0.000122,-0.002502,9.810000,0.000000,0.000000,0.000000,1.584565
1516,0.000000,0.000000,9.810000,0.000000,0.000000,0.000000,1.584565
1517,-0.000122,0.002502,9.810000,0.000000,0.000000,0.000000,1.584565
1518,0.000044,-0.002501,9.810000,0.000000,0.000000,0.000000,1.584565
1519,0.000078,-0.000001,9.810000,0.000000,0.000000,0.000000,1.584565
1520,0.000398,0.375030,9.810040,0.000000,0.000000,0.000000,1.584565
1521,0.000324,0.260028,9.809961,0.000000,0.000000,0.000000,1.586765
1522,0.000040,0.002500,9.810000,0.000000,0.000000,0.000000,1.586765
1523,-0.000002,-0.005001,9.810000,0.000000,0.000000,0.000000,1.586765
1524,0.000001,0.002500,9.810000,0.000000,0.000000,0.000000,1.586765
1525,-0.000020,0.000000,9.809961,0.000000,0.000000,0.000000,1.586765
1526,-0.000020,0.000000,9.810040,0.000000,0.000000,0.000000,1.586765
1527,0.000015,-0.000000,9.810000,0.000000,0.000000,0.000000,1.586765
1528,-0.000045,-0.002500,9.810000,0.000000,0.000000,0.000000,1.586765
1529,0.000020,0.002500,9.810000,0.000000,0.000000,0.000000,1.586765
1530,-0.000001,-0.002500,9.810000,0.000000,0.000000,0.000000,1.586765
1531,0.000040,0.002500,9.810000,0.000000,0.000000,0.000000,1.586765
1532,-0.000079,-0.002499,9.810000,0.000000,0.000000,0.000000,1.586765
1533,0.000040,0.002500,9.810000,0.000000,0.000000,0.000000,1.586765
1534,0.000000,0.000000,9.810000,0.000000,0.000000,0.000000,1.586765
1535,0.000012,0.035004,9.810040,0.000000,0.000000,0.000000,1.586765
1536,0.013499,-1.104995,9.809961,0.000000,0.000000,0.000000,1.570387
1537,-0.000079,0.002500,9.810000,0.000000,0.000000,0.000000,1.570387
1538,0.000000,0.000000,9.810000,0.000000,0.000000,0.000000,1.570387
1539,0.000156,0.000000,9.810000,0.000000,0.000000,0.000000,1.570387
1540,0.000000,0.000000,9.810000,0.000000,0.000000,0.000000,1.570387
1541,0.000000,0.000000,9.809961,0.000000,0.000000,0.000000,1.570387
1542,0.000000,0.000000,9.810040,0.000000,0.000000,0.000000,1.570387
1543,0.000156,0.000000,9.810000,0.000000,0.000000,0.000000,1.570387
1544,-0.000312,-0.000000,9.810000,0.000000,0.000000,0.000000,1.570387
1545,0.000156,0.000000,9.810000,0.000000,0.000000,0.000000,1.570387
1546,0.000000,0.000000,9.810000,0.000000,0.000000,0.000000,1.570387
1547,0.000000,0.000000,9.810000,0.000000,0.000000,0.000000,1.570387
1548,0.000000,0.000000,9.810000,0.000000,0.000000,0.000000,1.570387
1549,0.000000,0.000000,9.810000,0.000000,0.000000,0.000000,1.570387
1550,0.004505,-1.082498,9.810040,0.000000,0.000000,0.000000,1.570387
1551,0.000000,0.000000,9.810000,0.000000,0.000000,0.000000,1.570387
1552,-0.000333,0.050000,9.809922,0.000000,0.000000,0.000000,1.570387
1553,-0.000001,0.002500,9.810040,0.000000,0.000000,0.000000,1.570387
1554,0.000314,-0.002500,9.810000,0.000000,0.000000,0.000000,1.570387
1555,-0.000626,0.002500,9.810000,0.000000,0.000000,0.000000,1.570387
1556,0.000626,-0.002500,9.810000,0.000000,0.000000,0.000000,1.570387
1557,-0.000314,0.002500,9.810000,0.000000,0.000000,0.000000,1.570387
1558,0.000001,-0.002500,9.810000,0.000000,0.000000,0.000000,1.570387
1559,0.000000,0.000000,9.810000,0.000000,0.000000,0.000000,1.570387
1560,-0.000001,0.002500,9.810000,0.000000,0.000000,0.000000,1.570387
1561,-0.000311,-0.002500,9.810000,0.000000,0.000000,0.000000,1.570387
1562,0.000314,-0.002500,9.809961,0.000000,0.000000,0.000000,1.570387
1563,-0.000314,0.002500,9.810040,0.000000,0.000000,0.000000,1.570387
1564,0.000312,0.000000,9.810000,0.000000,0.000000,0.000000,1.570387
1565,0.000000,0.000000,9.810000,0.000000,0.000000,0.000000,1.570387
1566,-0.000292,-0.050000,9.810040,0.000000,0.000000,0.000000,1.570387
1567,-0.000002,0.005000,9.809961,0.000000,0.000000,0.000000,1.570387
1568,0.000001,-0.002500,9.810000,0.000000,0.000000,0.000000,1.570387
1569,-0.000001,0.002500,9.810000,0.000000,0.000000,0.000000,1.570387
1570,0.000001,-0.002500,9.810000,0.000000,0.000000,0.000000,1.570387
1571,-0.000001,0.002500,9.810000,0.000000,0.000000,0.000000,1.570387
1572,0.000001,-0.002500,9.810000,0.000000,0.000000,0.000000,1.570387
1573,-0.000625,-0.000000,9.809961,0.000000,0.000000,0.000000,1.570387
1574,0.000624,0.002500,9.810040,0.000000,0.000000,0.000000,1.570387
1575,0.000001,-0.002500,9.810000,0.000000,0.000000,0.000000,1.570387
1576,-0.000001,0.002500,9.810000,0.000000,0.000000,0.000000,1.570387
1577,0.000001,-0.002500,9.810000,0.000000,0.000000,0.000000,1.570387
1578,0.000624,0.002500,9.810000,0.000000,0.000000,0.000000,1.570387
1579,0.000001,-0.002500,9.810000,0.000000,0.000000,0.000000,1.570387
1580,0.000000,0.000000,9.810000,0.000000,0.000000,0.000000,1.570387
1581,0.000001,-0.002500,9.810040,0.000000,0.000000,0.000000,1.570387
1582,-0.000625,-0.000000,9.809961,0.000000,0.000000,0.000000,1.570387
1583,0.000625,0.000000,9.810000,0.000000,0.000000,0.000000,1.570387
1584,0.000000,0.000000,9.810000,0.000000,0.000000,0.000000,1.570387
1585,0.000000,0.000000,9.810000,0.000000,0.000000,0.000000,1.570387
1586,-0.000626,0.002500,9.810000,0.000000,0.000000,0.000000,1.570387
1587,0.000626,-0.002500,9.809961,0.000000,0.000000,0.000000,1.570387
1588,-0.000625,-0.000000,9.810040,0.000000,0.000000,0.000000,1.570387
1589,0.001249,0.002501,9.810000,0.000000,0.000000,0.000000,1.570387
1590,-0.001874,-0.002501,9.810000,0.000000,0.000000,0.000000,1.570387
1591,0.000625,0.000000,9.810000,0.000000,0.000000,0.000000,1.570387
1592,0.001250,0.000001,9.810000,0.000000,0.000000,0.000000,1.570387
1593,-0.001876,0.002499,9.810000,0.000000,0.000000,0.000000,1.570387
1594,0.000626,-0.002500,9.810000,0.000000,0.000000,0.000000,1.570387
1595,0.001250,0.000001,9.810000,0.000000,0.000000,0.000000,1.570387
1596,-0.001875,-0.000001,9.810040,0.000000,0.000000,0.000000,1.570387
1597,0.000625,0.000000,9.809961,0.000000,0.000000,0.000000,1.570387
1598,0.001249,0.002501,9.810000,0.000000,0.000000,0.000000,1.570387
1599,-0.001874,-0.002501,9.810000,0.000000,0.000000,0.000000,1.570387
1600,0.000625,0.000000,9.810000,0.000000,0.000000,0.000000,1.570387
1601,0.000625,0.000000,9.810000,0.000000,0.000000,0.000000,1.570387
1602,-0.000625,-0.000000,9.809961,0.000000,0.000000,0.000000,1.570387
1603,0.000000,0.000000,9.810040,0.000000,0.000000,0.000000,1.570387
1604,0.000624,0.002500,9.810000,0.000000,0.000000,0.000000,1.570387
1605,-0.000625,-0.000000,9.810000,0.000000,0.000000,0.000000,1.570387
1606,0.000001,-0.002500,9.810000,0.000000,0.000000,0.000000,1.570387
1607,0.001250,0.000001,9.810000,0.000000,0.000000,0.000000,1.570387
1608,0.000000,0.000000,9.810000,0.000000,0.000000,0.000000,1.570387
1609,-0.001251,0.002499,9.810000,0.000000,0.000000,0.000000,1.570387
1610,0.001251,-0.002499,9.810000,0.000000,0.000000,0.000000,1.570387
1611,0.000000,0.000000,9.810040,0.000000,0.000000,0.000000,1.570387
1612,-0.001250,-0.000001,9.809961,0.000000,0.000000,0.000000,1.570387
1613,0.001250,0.000001,9.810000,0.000000,0.000000,0.000000,1.570387
1614,0.000000,0.000000,9.810000,0.000000,0.000000,0.000000,1.570387
1615,-0.001250,-0.000001,9.810000,0.000000,0.000000,0.000000,1.570387
1616,0.000000,0.000000,9.810000,0.000000,0.000000,0.000000,1.570387
1617,0.002499,0.002501,9.809961,0.000000,0.000000,0.000000,1.570387
1618,-0.002499,-0.002501,9.810040,0.000000,0.000000,0.000000,1.570387
1619,0.000000,0.000000,9.810000,0.000000,0.000000,0.000000,1.570387
1620,0.001250,0.000001,9.810000,0.000000,0.000000,0.000000,1.570387
1621,-0.000001,0.002500,9.810000,0.000000,0.000000,0.000000,1.570387
1622,-0.001249,-0.002501,9.810000,0.000000,0.000000,0.000000,1.570387
1623,0.001250,0.000001,9.810000,0.000000,0.000000,0.000000,1.570387
1624,0.000000,0.000000,9.810000,0.000000,0.000000,0.000000,1.570387
1625,-0.001251,0.002499,9.810000,0.000000,0.000000,0.000000,1.570387
1626,0.001251,-0.002499,9.810040,0.000000,0.000000,0.000000,1.570387
1627,-0.001250,-0.000001,9.809961,0.000000,0.000000,0.000000,1.570387
1628,0.000000,0.000000,9.810000,0.000000,0.000000,0.000000,1.570387
1629,-0.000001,0.002500,9.810000,0.000000,0.000000,0.000000,1.570387
1630,0.000001,-0.002500,9.810000,0.000000,0.000000,0.000000,1.570387
1631,0.001250,0.000001,9.810000,0.000000,0.000000,0.000000,1.570387
1632,-0.001250,-0.000001,9.809961,0.000000,0.000000,0.000000,1.570387
1633,0.000000,0.000000,9.810040,0.000000,0.000000,0.000000,1.570387
1634,0.000000,0.000000,9.810000,0.000000,0.000000,0.000000,1.570387
1635,0.001250,0.000001,9.810000,0.000000,0.000000,0.000000,1.570387
1636,-0.001251,0.002499,9.810000,0.000000,0.000000,0.000000,1.570387
1637,0.000001,-0.002500,9.810000,0.000000,0.000000,0.000000,1.570387
1638,0.000000,0.000000,9.810000,0.000000,0.000000,0.000000,1.570387
1639,-0.000001,0.002500,9.810000,0.000000,0.000000,0.000000,1.570387
1640,0.000000,0.000000,9.810000,0.000000,0.000000,0.000000,1.570387
1641,0.000001,-0.002500,9.810040,0.000000,0.000000,0.000000,1.570387
1642,0.000000,0.000000,9.809961,0.000000,0.000000,0.000000,1.570387
1643,0.001250,0.000001,9.810000,0.000000,0.000000,0.000000,1.570387
1644,-0.001250,-0.000001,9.810000,0.000000,0.000000,0.000000,1.570387
1645,0.000000,0.000000,9.810000,0.000000,0.000000,0.000000,1.570387
1646,0.000000,0.000000,9.810000,0.000000,0.000000,0.000000,1.570387
1647,0.000000,0.000000,9.809961,0.000000,0.000000,0.000000,1.570387
1648,-0.000001,0.002500,9.810040,0.000000,0.000000,0.000000,1.570387
1649,0.000001,-0.002500,9.810000,0.000000,0.000000,0.000000,1.570387
1650,0.000000,0.000000,9.810000,0.000000,0.000000,0.000000,1.570387
1651,0.000000,0.000000,9.810000,0.000000,0.000000,0.000000,1.570387
1652,0.000000,0.000000,9.810000,0.000000,0.000000,0.000000,1.570387
1653,0.000000,0.000000,9.810000,0.000000,0.000000,0.000000,1.570387
1654,-0.001250,-0.000001,9.810000,0.000000,0.000000,0.000000,1.570387
1655,0.001249,0.002501,9.810000,0.000000,0.000000,0.000000,1.570387
1656,-0.001249,-0.002501,9.810040,0.000000,0.000000,0.000000,1.570387
1657,0.001249,0.002501,9.809961,0.000000,0.000000,0.000000,1.570387
1658,0.000001,-0.002500,9.810000,0.000000,0.000000,0.000000,1.570387
1659,-0.001250,-0.000001,9.810000,0.000000,0.000000,0.000000,1.570387
1660,0.001249,0.002501,9.810000,0.000000,0.000000,0.000000,1.570387
1661,0.000001,-0.002500,9.810000,0.000000,0.000000,0.000000,1.570387
1662,0.001250,0.000001,9.809961,0.000000,0.000000,0.000000,1.570387
1663,-0.002500,-0.000001,9.810040,0.000000,0.000000,0.000000,1.570387
1664,0.001250,0.000001,9.810000,0.000000,0.000000,0.000000,1.570387
1665,0.000000,0.000000,9.810000,0.000000,0.000000,0.000000,1.570387
1666,-0.001250,-0.000001,9.810000,0.000000,0.000000,0.000000,1.570387
1667,0.001250,0.000001,9.810000,0.000000,0.000000,0.000000,1.570387
1668,-0.001251,0.002499,9.810000,0.000000,0.000000,0.000000,1.570387
1669,0.001251,-0.002499,9.810000,0.000000,0.000000,0.000000,1.570387
1670,-0.000001,0.002500,9.810000,0.000000,0.000000,0.000000,1.570387
1671,-0.001249,-0.002501,9.810040,0.000000,0.000000,0.000000,1.570387
1672,0.001250,0.000001,9.809961,0.000000,0.000000,0.000000,1.570387
1673,0.000000,0.000000,9.810000,0.000000,0.000000,0.000000,1.570387
1674,0.001250,0.000001,9.810000,0.000000,0.000000,0.000000,1.570387
1675,-0.002500,-0.000001,9.810000,0.000000,0.000000,0.000000,1.570387
1676,0.001250,0.000001,9.810000,0.000000,0.000000,0.000000,1.570387
1677,0.000000,0.000000,9.809961,0.000000,0.000000,0.000000,1.570387
1678,-0.001251,0.002499,9.810040,0.000000,0.000000,0.000000,1.570387
1679,0.001251,-0.002499,9.810000,0.000000,0.000000,0.000000,1.570387
1680,-0.001250,-0.000001,9.810000,0.000000,0.000000,0.000000,1.570387
1681,0.001250,0.000001,9.810000,0.000000,0.000000,0.000000,1.570387
1682,0.000000,0.000000,9.810000,0.000000,0.000000,0.000000,1.570387
1683,-0.001251,0.002499,9.810000,0.000000,0.000000,0.000000,1.570387
1684,0.001251,-0.002499,9.810000,0.000000,0.000000,0.000000,1.570387
1685,-0.002500,-0.000001,9.810000,0.000000,0.000000,0.000000,1.570387
1686,0.000000,0.000000,9.810040,0.000000,0.000000,0.000000,1.570387
1687,-0.000001,0.002500,9.809961,0.000000,0.000000,0.000000,1.570387
1688,0.000001,-0.002500,9.810000,0.000000,0.000000,0.000000,1.570387
1689,-0.002500,-0.000001,9.810000,0.000000,0.000000,0.000000,1.570387
1690,0.005000,0.000002,9.810000,0.000000,0.000000,0.000000,1.570387
1691,-0.002500,-0.000001,9.810000,0.000000,0.000000,0.000000,1.570387
1692,0.000000,0.000000,9.809961,0.000000,0.000000,0.000000,1.570387
1693,-0.002500,-0.000001,9.810040,0.000000,0.000000,0.000000,1.570387
1694,0.002499,0.002501,9.810000,0.000000,0.000000,0.000000,1.570387
1695,0.000001,-0.002500,9.810000,0.000000,0.000000,0.000000,1.570387
1696,0.000000,0.000000,9.810000,0.000000,0.000000,0.000000,1.570387
1697,-0.000001,0.002500,9.810000,0.000000,0.000000,0.000000,1.570387
1698,0.000001,-0.002500,9.810000,0.000000,0.000000,0.000000,1.570387
1699,-0.002501,0.002499,9.810000,0.000000,0.000000,0.000000,1.570387
1700,0.002501,-0.002499,9.810000,0.000000,0.000000,0.000000,1.570387
1701,0.000000,0.000000,9.810040,0.000000,0.000000,0.000000,1.570387
1702,0.002500,0.000001,9.809961,0.000000,0.000000,0.000000,1.570387
1703,-0.005000,-0.000002,9.810000,0.000000,0.000000,0.000000,1.570387
1704,0.002500,0.000001,9.810000,0.000000,0.000000,0.000000,1.570387
1705,0.000000,0.000000,9.810000,0.000000,0.000000,0.000000,1.570387
1706,0.000000,0.000000,9.810000,0.000000,0.000000,0.000000,1.570387
1707,-0.000001,0.002500,9.809961,0.000000,0.000000,0.000000,1.570387
1708,-0.002499,-0.002501,9.810040,0.000000,0.000000,0.000000,1.570387
1709,0.002500,0.000001,9.810000,0.000000,0.000000,0.000000,1.570387
1710,0.000000,0.000000,9.810000,0.000000,0.000000,0.000000,1.570387
1711,0.000000,0.000000,9.810000,0.000000,0.000000,0.000000,1.570387
1712,0.000000,0.000000,9.810000,0.000000,0.000000,0.000000,1.570387
1713,-0.002501,0.002499,9.810000,0.000000,0.000000,0.000000,1.570387
1714,0.002501,-0.002499,9.810000,0.000000,0.000000,0.000000,1.570387
1715,-0.000001,0.002500,9.810000,0.000000,0.000000,0.000000,1.570387
1716,0.000001,-0.002500,9.810040,0.000000,0.000000,0.000000,1.570387
1717,0.110681,1.986976,9.809961,0.000000,0.000000,0.000000,1.633980
1718,0.002337,-0.002653,9.810000,0.000000,0.000000,0.000000,1.633980
1719,-0.002337,0.002653,9.810000,0.000000,0.000000,0.000000,1.633980
1720,-0.000158,-0.002495,9.810000,0.000000,0.000000,0.000000,1.633980
1721,0.002495,-0.000158,9.810000,0.000000,0.000000,0.000000,1.633980
1722,0.000158,0.002495,9.809961,0.000000,0.000000,0.000000,1.633980
1723,-0.000158,-0.002495,9.810040,0.000000,0.000000,0.000000,1.633980
1724,-0.002337,0.002653,9.810000,0.000000,0.000000,0.000000,1.633980
1725,-0.000158,-0.002495,9.810000,0.000000,0.000000,0.000000,1.633980
1726,0.005148,0.002179,9.810000,0.000000,0.000000,0.000000,1.633980
1727,-0.004990,0.000316,9.810000,0.000000,0.000000,0.000000,1.633980
1728,-0.000158,-0.002495,9.810000,0.000000,0.000000,0.000000,1.633980
1729,0.002653,0.002337,9.810000,0.000000,0.000000,0.000000,1.633980
1730,0.154822,6.485666,9.810040,0.000000,0.000000,0.000000,1.633980
1731,0.172324,3.392899,9.809961,0.000000,0.000000,0.000000,1.697411
1732,0.002480,-0.000316,9.810000,0.000000,0.000000,0.000000,1.697411
1733,-0.002480,0.000316,9.809961,0.000000,0.000000,0.000000,1.697411
1734,0.004644,-0.003111,9.810040,0.000000,0.000000,0.000000,1.697411
1735,-0.004644,0.003111,9.810000,0.000000,0.000000,0.000000,1.697411
1736,0.002480,-0.000316,9.810000,0.000000,0.000000,0.000000,1.697411
1737,0.097331,5.060720,9.810040,0.000000,0.000000,0.000000,1.697411
1738,0.203547,4.326954,9.809961,0.000000,0.000000,0.000000,1.760843
1739,-0.001983,0.002927,9.810000,0.000000,0.000000,0.000000,1.760843
1740,0.001983,-0.002927,9.809961,0.000000,0.000000,0.000000,1.760843
1741,0.000000,0.000000,9.810040,0.000000,0.000000,0.000000,1.760843
1742,0.000000,0.000000,9.810000,0.000000,0.000000,0.000000,1.760843
1743,0.062844,4.124896,9.810040,0.000000,0.000000,0.000000,1.760843
1744,0.185072,3.725121,9.809961,-0.000000,0.000000,0.000003,1.824274
1745,-0.000627,-0.002420,9.810000,-0.000000,0.000000,0.000003,1.824274
1746,-0.002420,0.000627,9.809961,-0.000000,0.000000,0.000003,1.824274
1747,0.000627,0.002420,9.810040,-0.000000,0.000000,0.000003,1.824274
1748,0.004213,-0.003674,9.810000,-0.000000,0.000000,0.000003,1.824274
1749,0.000627,0.002420,9.810000,-0.000000,0.000000,0.000003,1.824274
1750,0.080816,4.728322,9.810040,-0.000000,0.000000,0.000003,1.824274
1751,0.205059,4.347594,9.809961,0.000000,0.000000,0.000000,1.887706
1752,0.001558,0.004751,9.810000,0.000000,0.000000,0.000000,1.887706
1753,-0.003155,-0.001596,9.809961,0.000000,0.000000,0.000000,1.887706
1754,0.000779,0.002376,9.810040,0.000000,0.000000,0.000000,1.887706
1755,0.001596,-0.003155,9.810000,0.000000,0.000000,0.000000,1.887706
1756,0.064724,4.104207,9.810040,0.000000,0.000000,0.000000,1.887706
1757,0.178115,3.725078,9.809961,0.000000,0.000000,0.000000,1.951137
1758,0.000928,0.002321,9.810000,0.000000,0.000000,0.000000,1.951137
1759,0.004643,-0.001856,9.809961,0.000000,0.000000,0.000000,1.951137
1760,-0.004643,0.001856,9.810040,0.000000,0.000000,0.000000,1.951137
1761,0.000000,0.000000,9.810000,0.000000,0.000000,0.000000,1.951137
1762,0.003715,-0.004178,9.810000,0.000000,0.000000,0.000000,1.951137
1763,0.080924,4.727817,9.810040,0.000000,0.000000,0.000000,1.951137
1764,0.204197,4.354070,9.809961,0.000000,0.000000,0.000003,2.014569
1765,0.003331,0.001184,9.810000,0.000000,0.000000,0.000003,2.014569
1766,-0.001073,-0.002258,9.809961,0.000000,0.000000,0.000003,2.014569
1767,-0.002258,0.001073,9.810040,0.000000,0.000000,0.000003,2.014569
1768,0.006774,-0.003220,9.810000,0.000000,0.000000,0.000003,2.014569
1769,0.057218,4.097304,9.810040,0.000000,0.000000,0.000003,2.014569
1770,0.189553,3.732874,9.809961,-0.000000,0.000000,0.000006,2.078001
1771,-0.002185,0.001214,9.810000,-0.000000,0.000000,0.000006,2.078001
1772,0.000000,0.000000,9.809961,-0.000000,0.000000,0.000006,2.078001
1773,-0.003400,-0.000971,9.810040,-0.000000,0.000000,0.000006,2.078001
1774,0.005585,-0.000243,9.810000,-0.000000,0.000000,0.000006,2.078001
1775,-0.003400,-0.000971,9.810000,-0.000000,0.000000,0.000006,2.078001
1776,0.081602,4.722383,9.810040,-0.000000,0.000000,0.000006,2.078001
1777,0.205135,4.360003,9.809961,0.000000,0.000000,0.000000,2.141433
1778,0.000000,0.000000,9.810000,0.000000,0.000000,0.000000,2.141433
1779,0.002857,-0.004805,9.809961,0.000000,0.000000,0.000000,2.141433
1780,0.000675,0.001052,9.810040,0.000000,0.000000,0.000000,2.141433
1781,-0.000675,-0.001052,9.810000,0.000000,0.000000,0.000000,2.141433
1782,0.062695,4.096434,9.810040,0.000000,0.000000,0.000000,2.141433
1783,0.183275,3.734895,9.809961,0.000000,0.000000,0.000006,2.204864
1784,0.001274,-0.002488,9.810000,0.000000,0.000000,0.000006,2.204864
1785,0.000741,0.001007,9.809961,0.000000,0.000000,0.000006,2.204864
1786,-0.004769,0.001955,9.810040,0.000000,0.000000,0.000006,2.204864
1787,0.004769,-0.001955,9.810000,0.000000,0.000000,0.000006,2.204864
1788,-0.004769,0.001955,9.810000,0.000000,0.000000,0.000006,2.204864
1789,0.085515,4.716017,9.810040,0.000000,0.000000,0.000006,2.204864
1790,0.206655,4.360703,9.809961,0.000000,0.000000,0.000000,2.268295
1791,0.001916,-0.001606,9.810000,0.000000,0.000000,0.000000,2.268295
1792,-0.001916,0.001606,9.809961,0.000000,0.000000,0.000000,2.268295
1793,0.001916,-0.001606,9.810040,0.000000,0.000000,0.000000,2.268295
1794,-0.005748,0.004817,9.810000,0.000000,0.000000,0.000000,2.268295
1795,0.065700,4.087411,9.810040,0.000000,0.000000,0.000000,2.268295
1796,0.184435,3.735618,9.809961,0.000000,0.000000,0.000000,2.331727
1797,-0.001897,0.005258,9.810000,0.000000,0.000000,0.000000,2.331727
1798,0.003621,-0.003448,9.809961,0.000000,0.000000,0.000000,2.331727
1799,-0.001724,-0.001810,9.810040,0.000000,0.000000,0.000000,2.331727
1800,0.000862,0.000905,9.810000,0.000000,0.000000,0.000000,2.331727
1801,0.000000,0.000000,9.810000,0.000000,0.000000,0.000000,2.331727
1802,0.084441,4.714576,9.810040,0.000000,0.000000,0.000000,2.331727
1803,0.203857,4.367061,9.809961,0.000000,0.000000,-0.000006,2.395159
1804,0.000780,-0.002684,9.810000,0.000000,0.000000,-0.000006,2.395159
1805,0.000918,0.000849,9.809961,0.000000,0.000000,-0.000006,2.395159
1806,-0.002615,0.000987,9.810040,0.000000,0.000000,-0.000006,2.395159
1807,0.004313,-0.002822,9.810000,0.000000,0.000000,-0.000006,2.395159
1808,0.059509,4.090516,9.810040,0.000000,0.000000,-0.000006,2.395159
1809,0.186009,3.738512,9.809961,-0.000000,-0.000000,-0.000006,2.458591
1810,0.001578,-0.001939,9.810000,-0.000000,-0.000000,-0.000006,2.458591
1811,0.000970,0.000789,9.809961,-0.000000,-0.000000,-0.000006,2.458591
1812,-0.004125,0.003090,9.810040,-0.000000,-0.000000,-0.000006,2.458591
1813,-0.000970,-0.000789,9.810000,-0.000000,-0.000000,-0.000006,2.458591
1814,-0.000361,-0.003517,9.810000,-0.000000,-0.000000,-0.000006,2.458591
1815,0.083838,4.715739,9.810040,-0.000000,-0.000000,-0.000006,2.458591
1816,0.207560,4.367284,9.809961,0.000000,0.000000,0.000006,2.522022
1817,0.000434,-0.002761,9.810000,0.000000,0.000000,0.000006,2.522022
1818,0.000000,0.000000,9.809961,0.000000,0.000000,0.000006,2.522022
1819,-0.003921,0.003345,9.810040,0.000000,0.000000,0.000006,2.522022
1820,0.003921,-0.003345,9.810000,0.000000,0.000000,0.000006,2.522022
1821,0.061768,4.085192,9.810040,0.000000,0.000000,0.000006,2.522022
1822,0.186226,3.742274,9.809961,0.000000,0.000000,-0.000006,2.585453
1823,-0.003443,0.000803,9.810000,0.000000,0.000000,-0.000006,2.585453
1824,0.003443,-0.000803,9.809961,0.000000,0.000000,-0.000006,2.585453
1825,-0.001320,0.002123,9.810040,0.000000,0.000000,-0.000006,2.585453
1826,-0.001320,0.002123,9.810000,0.000000,0.000000,-0.000006,2.585453
1827,0.000516,-0.005566,9.810000,0.000000,0.000000,-0.000006,2.585453
1828,0.083678,4.714679,9.810040,0.000000,0.000000,-0.000006,2.585453
1829,0.205271,4.366463,9.809961,0.000000,0.000000,0.000000,2.648885
1830,0.000000,0.000000,9.810000,0.000000,0.000000,0.000000,2.648885
1831,-0.001183,0.002203,9.809961,0.000000,0.000000,0.000000,2.648885
1832,0.002365,-0.004405,9.810040,0.000000,0.000000,0.000000,2.648885
1833,0.000000,0.000000,9.810000,0.000000,0.000000,0.000000,2.648885
1834,0.061258,4.087684,9.810040,0.000000,0.000000,0.000000,2.648885
1835,0.186855,3.742321,9.809961,0.000000,0.000000,0.000000,2.712317
1836,-0.002177,0.001753,9.810000,0.000000,0.000000,0.000000,2.712317
1837,-0.001137,-0.000520,9.809961,0.000000,0.000000,0.000000,2.712317
1838,0.001041,-0.002273,9.810040,0.000000,0.000000,0.000000,2.712317
1839,-0.001137,-0.000520,9.810000,0.000000,0.000000,0.000000,2.712317
1840,0.004258,-0.006299,9.810000,0.000000,0.000000,0.000000,2.712317
1841,0.081554,4.714172,9.810040,0.000000,0.000000,0.000000,2.712317
1842,0.205497,4.372903,9.809961,0.000000,0.000000,0.000000,2.775748
1843,-10.660628,0.325321,9.810000,0.000000,0.000000,0.000000,2.775748
1844,10.659461,-0.325768,9.809961,0.000000,0.000000,0.000000,2.775748
1845,-10.663584,0.329543,9.810040,0.000000,0.000000,0.000000,2.775748
1846,-9.808356,0.298432,9.810000,0.000000,0.000000,0.000000,2.775748
1847,20.474003,-0.629862,9.810000,0.000000,0.000000,0.000000,2.775748
1848,-10.607344,4.085740,9.810040,0.000000,0.000000,0.000000,2.775748
1849,-122.664795,-0.004623,9.809961,0.000000,0.000000,0.000000,2.775748
1850,0.000000,0.000000,9.810000,0.000000,0.000000,0.000000,2.775748
1851,0.000000,0.000000,9.810000,0.000000,0.000000,0.000000,2.775748
1852,0.000000,0.000000,9.810000,0.000000,0.000000,0.000000,2.775748
1853,0.000000,0.000000,9.810000,0.000000,0.000000,0.000000,2.775748
1854,0.000000,0.000000,9.810000,0.000000,0.000000,0.000000,2.775748
1855,0.000000,0.000000,9.810000,0.000000,0.000000,0.000000,2.775748
1856,0.000000,0.000000,9.810000,0.000000,0.000000,0.000000,2.775748
1857,0.000000,0.000000,9.810000,0.000000,0.000000,0.000000,2.775748
1858,0.000000,0.000000,9.810000,0.000000,0.000000,0.000000,2.775748
1859,0.000000,0.000000,9.810000,0.000000,0.000000,0.000000,2.775748
1860,0.000000,0.000000,9.810000,0.000000,0.000000,0.000000,2.775748
1861,0.000000,0.000000,9.810000,0.000000,0.000000,0.000000,2.775748
1862,0.000000,0.000000,9.810000,0.000000,0.000000,0.000000,2.775748
1863,0.000000,0.000000,9.810000,0.000000,0.000000,0.000000,2.775748
1864,0.000000,0.000000,9.810000,0.000000,0.000000,0.000000,2.775748
1865,0.000000,0.000000,9.810000,0.000000,0.000000,0.000000,2.775748
1866,0.000000,0.000000,9.810000,0.000000,0.000000,0.000000,2.775748
1867,0.000000,0.000000,9.810000,0.000000,0.000000,0.000000,2.775748
1868,0.000000,0.000000,9.810000,0.000000,0.000000,0.000000,2.775748
1869,0.000000,0.000000,9.810000,0.000000,0.000000,0.000000,2.775748
1870,0.000000,0.000000,9.810000,0.000000,0.000000,0.000000,2.775748
1871,0.000000,0.000000,9.810000,0.000000,0.000000,0.000000,2.775748
1872,0.000000,0.000000,9.810000,0.000000,0.000000,0.000000,2.775748
1873,0.000000,0.000000,9.810000,0.000000,0.000000,0.000000,2.775748
1874,0.000000,0.000000,9.810000,0.000000,0.000000,0.000000,2.775748
1875,0.000000,0.000000,9.810000,0.000000,0.000000,0.000000,2.775748
1876,0.000000,0.000000,9.810000,0.000000,0.000000,0.000000,2.775748
1877,0.000000,0.000000,9.810000,0.000000,0.000000,0.000000,2.775748
1878,0.000000,0.000000,9.810000,0.000000,0.000000,0.000000,2.775748
1879,0.000000,0.000000,9.810000,0.000000,0.000000,0.000000,2.775748
1880,0.000000,0.000000,9.810000,0.000000,0.000000,0.000000,2.775748
1881,0.000000,0.000000,9.810000,0.000000,0.000000,0.000000,2.775748
1882,0.000000,0.000000,9.810000,0.000000,0.000000,0.000000,2.775748
1883,0.000000,0.000000,9.810000,0.000000,0.000000,0.000000,2.775748
1884,0.000000,0.000000,9.810000,0.000000,0.000000,0.000000,2.775748
1885,0.000000,0.000000,9.810000,0.000000,0.000000,0.000000,2.775748
1886,0.000000,0.000000,9.810000,0.000000,0.000000,0.000000,2.775748
1887,0.000000,0.000000,9.810000,0.000000,0.000000,0.000000,2.775748
1888,0.000000,0.000000,9.810000,0.000000,0.000000,0.000000,2.775748
1889,0.000000,0.000000,9.810000,0.000000,0.000000,0.000000,2.775748
1890,0.000000,0.000000,9.810000,0.000000,0.000000,0.000000,2.775748
1891,0.000000,0.000000,9.810000,0.000000,0.000000,0.000000,2.775748
1892,0.000000,0.000000,9.810000,0.000000,0.000000,0.000000,2.775748
1893,0.000000,0.000000,9.810000,0.000000,0.000000,0.000000,2.775748
1894,133.278503,-3.824997,9.810000,0.000000,0.000000,0.000000,2.839180
1895,-0.000745,0.002387,9.809961,0.000000,0.000000,0.000000,2.839180
1896,-0.000449,-0.002759,9.810040,0.000000,0.000000,0.000000,2.839180
1897,0.001938,-0.002014,9.810000,0.000000,0.000000,0.000000,2.839180
1898,-0.000745,0.002387,9.810000,0.000000,0.000000,0.000000,2.839180
1899,0.055498,3.830347,9.810040,0.000000,0.000000,0.000000,2.839180
1900,0.189564,3.905879,9.809961,0.000000,0.000000,0.000006,2.902611
1901,-0.001214,-0.000296,9.810000,0.000000,0.000000,0.000006,2.902611
1902,0.001806,-0.002133,9.809961,0.000000,0.000000,0.000006,2.902611
1903,-0.001184,0.004858,9.810040,0.000000,0.000000,0.000006,2.902611
1904,0.000592,-0.002429,9.810000,0.000000,0.000000,0.000006,2.902611
1905,0.001184,-0.004858,9.810000,0.000000,0.000000,0.000006,2.902611
1906,0.075778,4.547170,9.810040,0.000000,0.000000,0.000006,2.902611
1907,0.210776,4.551769,9.809961,0.000000,0.000000,0.000000,2.966043
1908,0.001667,-0.002243,9.810000,0.000000,0.000000,0.000000,2.966043
1909,-0.001231,-0.000218,9.809961,0.000000,0.000000,0.000000,2.966043
1910,0.001231,0.000218,9.810040,0.000000,0.000000,0.000000,2.966043
1911,-0.001231,-0.000218,9.810000,0.000000,0.000000,0.000000,2.966043
1912,0.056822,3.902401,9.810040,0.000000,0.000000,0.000000,2.966043
1913,0.191007,3.900863,9.809961,0.000000,0.000000,0.000006,3.029474
1914,0.000000,0.000000,9.810000,0.000000,0.000000,0.000006,3.029474
1915,0.000000,0.000000,9.809961,0.000000,0.000000,0.000006,3.029474
1916,-0.000280,0.002484,9.810040,0.000000,0.000000,0.000006,3.029474
1917,0.001522,-0.002344,9.810000,0.000000,0.000000,0.000006,3.029474
1918,-0.001242,-0.000140,9.810000,0.000000,0.000000,0.000006,3.029474
1919,0.077695,4.549759,9.810040,0.000000,0.000000,0.000006,3.029474
1920,-0.946850,4.586855,9.809961,-0.000000,-0.000000,0.000012,3.092906
1921,-0.704969,0.020716,9.810000,-0.000000,-0.000000,0.000012,3.092906
1922,-0.702350,0.018341,9.809961,-0.000000,-0.000000,0.000012,3.092906
1923,-0.697980,0.018553,9.810040,-0.000000,-0.000000,0.000012,3.092906
1924,-0.694478,0.023730,9.810000,-0.000000,-0.000000,0.000012,3.092906
1925,-0.635512,3.783555,9.810040,-0.000000,-0.000000,0.000012,3.092906
1926,-0.507958,3.660388,9.809961,0.000000,0.000000,0.000000,3.156339
1927,-0.686616,0.022627,9.810000,0.000000,0.000000,0.000000,3.156339
1928,-0.680955,0.025043,9.809961,0.000000,0.000000,0.000000,3.156339
1929,-0.677168,0.027488,9.810040,0.000000,0.000000,0.000000,3.156339
1930,-0.675404,0.019961,9.810000,0.000000,0.000000,0.000000,3.156339
1931,-0.669118,0.022369,9.810000,0.000000,0.000000,0.000000,3.156339
1932,-0.590493,4.379183,9.810040,0.000000,0.000000,0.000000,3.156339
1933,-0.659396,-0.858667,9.809961,0.000000,0.000000,0.000012,3.147432
1934,-0.660614,0.003855,9.810000,0.000000,0.000000,0.000012,3.147432
1935,-0.656908,-0.003667,9.810000,0.000000,0.000000,0.000012,3.147432
1936,-0.653797,-0.006185,9.810000,0.000000,0.000000,0.000012,3.147432
1937,-0.648768,-0.001215,9.809961,0.000000,0.000000,0.000012,3.147432
1938,-0.646879,0.001274,9.810040,0.000000,0.000000,0.000012,3.147432
1939,-0.643143,-0.001248,9.810000,0.000000,0.000000,0.000012,3.147432
1940,-0.639393,-0.001269,9.810000,0.000000,0.000000,0.000012,3.147432
1941,-0.636297,-0.006288,9.810000,0.000000,0.000000,0.000012,3.147432
1942,-0.631864,0.003687,9.810000,0.000000,0.000000,0.000012,3.147432
1943,-0.628875,-0.233835,9.810040,0.000000,0.000000,0.000012,3.147432
1944,-0.623270,-0.695991,9.809961,0.000000,-0.000000,0.000006,3.140010
1945,-0.621878,0.001512,9.810000,0.000000,-0.000000,0.000006,3.140010
1946,-0.619995,-0.003485,9.810000,0.000000,-0.000000,0.000006,3.140010
1947,-0.616249,-0.000979,9.810000,0.000000,-0.000000,0.000006,3.140010
1948,-0.611878,0.001528,9.810000,0.000000,-0.000000,0.000006,3.140010
1949,-0.609370,-0.003468,9.809961,0.000000,-0.000000,0.000006,3.140010
1950,-0.606249,-0.000963,9.810040,0.000000,-0.000000,0.000006,3.140010
1951,-0.602503,0.001543,9.810000,0.000000,-0.000000,0.000006,3.140010
1952,-0.599370,-0.003452,9.810000,0.000000,-0.000000,0.000006,3.140010
1953,-0.596874,-0.000948,9.810000,0.000000,-0.000000,0.000006,3.140010
1954,-0.591874,-0.000940,9.810000,0.000000,-0.000000,0.000006,3.140010
1955,-0.590628,0.001562,9.810000,0.000000,-0.000000,0.000006,3.140010
1956,-0.586245,-0.003431,9.810000,0.000000,-0.000000,0.000006,3.140010
1957,-0.583749,-0.000928,9.810000,0.000000,-0.000000,0.000006,3.140010
1958,-0.581253,0.001576,9.810000,0.000000,-0.000000,0.000006,3.140010
1959,-0.576870,-0.003417,9.810000,0.000000,-0.000000,0.000006,3.140010
1960,-0.574374,-0.000913,9.810000,0.000000,-0.000000,0.000006,3.140010
1961,-0.571253,0.001592,9.810000,0.000000,-0.000000,0.000006,3.140010
1962,-0.567878,-0.155902,9.810040,0.000000,-0.000000,0.000006,3.140010
1963,-0.561929,0.543845,9.809961,-0.000000,0.000000,0.000012,3.148420
1964,-0.562521,-0.001164,9.810000,-0.000000,0.000000,0.000012,3.148420
1965,-0.558754,0.001310,9.810000,-0.000000,0.000000,0.000012,3.148420
1966,-0.555925,0.003791,9.809961,-0.000000,0.000000,0.000012,3.148420
1967,-0.553442,0.001274,9.810040,-0.000000,0.000000,0.000012,3.148420
1968,-0.550038,-0.003749,9.810000,-0.000000,0.000000,0.000012,3.148420
1969,-0.547124,0.011231,9.810000,-0.000000,0.000000,0.000012,3.148420
1970,-0.544413,-0.003788,9.810000,-0.000000,0.000000,0.000012,3.148420
1971,-0.541550,0.003693,9.810000,-0.000000,0.000000,0.000012,3.148420
1972,-0.538130,0.001170,9.810000,-0.000000,0.000000,0.000012,3.148420
1973,-0.535647,-0.001347,9.810000,-0.000000,0.000000,0.000012,3.148420
1974,-0.532817,0.001134,9.810000,-0.000000,0.000000,0.000012,3.148420
1975,-0.529641,0.008612,9.810000,-0.000000,0.000000,0.000012,3.148420
1976,-0.526897,-0.001407,9.810000,-0.000000,0.000000,0.000012,3.148420
1977,-0.524380,0.001076,9.810000,-0.000000,0.000000,0.000012,3.148420
1978,-0.521584,-0.001443,9.810000,-0.000000,0.000000,0.000012,3.148420
1979,-0.518443,0.001036,9.810000,-0.000000,0.000000,0.000012,3.148420
1980,-0.515613,0.003516,9.810000,-0.000000,0.000000,0.000012,3.148420
1981,-0.513186,0.313507,9.810040,-0.000000,0.000000,0.000012,3.148420
1982,-0.510090,-0.011522,9.809961,-0.000000,0.000000,0.000012,3.148420
1983,-0.507193,0.000959,9.810000,-0.000000,0.000000,0.000012,3.148420
1984,-0.505335,-0.001554,9.809961,-0.000000,0.000000,0.000012,3.148420
1985,-0.501863,0.003422,9.810040,-0.000000,0.000000,0.000012,3.148420
1986,-0.499085,-0.001597,9.810000,-0.000000,0.000000,0.000012,3.148420
1987,-0.497193,0.000891,9.810000,-0.000000,0.000000,0.000012,3.148420
1988,-0.494051,0.003369,9.810000,-0.000000,0.000000,0.000012,3.148420
1989,-0.491273,-0.001650,9.810000,-0.000000,0.000000,0.000012,3.148420
1990,-0.488773,-0.001667,9.810000,-0.000000,0.000000,0.000012,3.148420
1991,-0.486602,-0.004182,9.810000,-0.000000,0.000000,0.000012,3.148420
1992,-0.483756,0.000799,9.810000,-0.000000,0.000000,0.000012,3.148420
1993,-0.480614,0.003278,9.810000,-0.000000,0.000000,0.000012,3.148420
1994,-0.478287,0.000762,9.810000,-0.000000,0.000000,0.000012,3.148420
1995,-0.476117,-0.001753,9.810000,-0.000000,0.000000,0.000012,3.148420
1996,-0.473461,-0.001771,9.810000,-0.000000,0.000000,0.000012,3.148420
1997,-0.470597,0.005709,9.810000,-0.000000,0.000000,0.000012,3.148420
1998,-0.468478,-0.004305,9.810000,-0.000000,0.000000,0.000012,3.148420
1999,-0.465614,0.003175,9.810000,-0.000000,0.000000,0.000012,3.148420
2000,-0.463495,-0.006839,9.810000,-0.000000,0.000000,0.000012,3.148420
2001,-0.460458,0.003140,9.810000,-0.000000,0.000000,0.000012,3.148420
2002,-0.458617,-0.001873,9.810000,-0.000000,0.000000,0.000012,3.148420
2003,-0.455668,0.018108,9.810040,-0.000000,0.000000,0.000012,3.148420
2004,48.694984,-0.007069,9.809922,-0.000000,0.000000,0.000012,3.148420
2005,0.000017,0.002500,9.810040,-0.000000,0.000000,0.000012,3.148420
2006,-0.000017,-0.002500,9.810000,-0.000000,0.000000,0.000012,3.148420
2007,-0.000044,0.005000,9.810040,-0.000000,0.000000,0.000012,3.148420
2008,0.039481,0.656342,9.809961,0.000000,0.000000,-0.000012,3.210942
2009,-0.000173,-0.002494,9.810000,0.000000,0.000000,-0.000012,3.210942
2010,0.000173,0.002494,9.810000,0.000000,0.000000,-0.000012,3.210942
2011,-0.000173,-0.002494,9.810000,0.000000,0.000000,-0.000012,3.210942
2012,0.000173,0.002494,9.810000,0.000000,0.000000,-0.000012,3.210942
2013,0.000000,0.000000,9.809961,0.000000,0.000000,-0.000012,3.210942
2014,-0.000154,-0.002495,9.810040,0.000000,0.000000,-0.000012,3.210942
2015,0.000173,0.002494,9.810000,0.000000,0.000000,-0.000012,3.210942
2016,-0.000168,-0.002494,9.810000,0.000000,0.000000,-0.000012,3.210942
2017,-0.000173,-0.002494,9.810000,0.000000,0.000000,-0.000012,3.210942
2018,0.000327,0.004989,9.810000,0.000000,0.000000,-0.000012,3.210942
2019,-0.000346,-0.004988,9.810000,0.000000,0.000000,-0.000012,3.210942
2020,0.000000,0.000000,9.810000,0.000000,0.000000,-0.000012,3.210942
2021,0.221241,7.678125,9.810040,0.000000,0.000000,-0.000012,3.210942
2022,0.165980,2.539970,9.809922,0.000000,0.000000,0.000000,3.285594
2023,-0.000281,-0.002485,9.810040,0.000000,0.000000,0.000000,3.285594
2024,0.206428,7.412094,9.810040,0.000000,0.000000,0.000000,3.285594
2025,0.260137,4.526342,9.809922,0.000000,0.000000,0.000006,3.360246
2026,0.001008,0.004898,9.810040,0.000000,0.000000,0.000006,3.360246
2027,0.109416,5.410077,9.810040,0.000000,0.000000,0.000006,3.360246
2028,0.346786,7.408636,9.809922,-0.000000,-0.000000,-0.000006,3.434899
2029,0.025498,2.538541,9.810079,-0.000000,-0.000000,-0.000006,3.434899
2030,0.274227,4.877863,9.809961,0.000000,0.000000,0.000000,3.509551
2031,0.000292,-0.000112,9.809961,0.000000,0.000000,0.000000,3.509551
2032,0.095984,5.064470,9.810079,0.000000,0.000000,0.000000,3.509551
2033,0.313422,6.018195,9.809922,0.000000,0.000000,-0.000012,3.584204
2034,0.057880,3.926036,9.810079,0.000000,0.000000,-0.000012,3.584204
2035,0.228263,3.747371,9.809961,0.000000,0.000000,0.000000,3.658856
2036,0.000272,-0.000155,9.809961,0.000000,0.000000,0.000000,3.658856
2037,0.141870,6.195348,9.810079,0.000000,0.000000,0.000000,3.658856
2038,0.266434,4.628832,9.809961,0.000000,0.000000,0.000000,3.733509
2039,0.000000,0.000000,9.809961,0.000000,0.000000,0.000000,3.733509
2040,0.105051,5.315738,9.810079,0.000000,0.000000,0.000000,3.733509
2041,0.343740,7.160101,9.809922,0.000000,0.000000,0.000000,3.808161
2042,0.029015,2.785884,9.810079,0.000000,0.000000,0.000000,3.808161
2043,0.265890,4.687860,9.809961,0.000000,0.000000,0.000000,3.882814
2044,0.003145,0.003899,9.809961,0.000000,0.000000,0.000000,3.882814
2045,0.101388,5.251914,9.810079,0.000000,0.000000,0.000000,3.882814
2046,0.306575,5.785212,9.809922,0.000000,0.000000,0.000000,3.957467
2047,0.064903,4.159509,9.810079,0.000000,0.000000,0.000000,3.957467
2048,0.369134,5.118157,9.809961,0.000000,0.000000,0.000000,4.048358
2049,0.000000,0.000000,9.809961,0.000000,0.000000,0.000000,4.048358
2050,0.000578,-0.000738,9.810040,0.000000,0.000000,0.000000,4.048358
2051,0.179240,6.983401,9.810040,0.000000,0.000000,0.000000,4.048358
2052,0.260129,5.362947,9.809961,0.000000,0.000000,0.000000,4.116551
2053,0.000175,-0.000259,9.809961,0.000000,0.000000,0.000000,4.116551
2054,0.051430,3.724029,9.810079,0.000000,0.000000,0.000000,4.116551
2055,0.227267,4.401486,9.809961,0.000000,0.000000,0.000000,4.184746
2056,-0.000157,0.000270,9.809961,0.000000,0.000000,0.000000,4.184746
2057,0.085315,4.684795,9.810079,0.000000,0.000000,0.000000,4.184746
2058,0.179951,3.182315,9.809961,0.000000,0.000000,0.000000,4.252941
2059,-0.006861,-0.003046,9.809961,0.000000,0.000000,0.000000,4.252941
2060,0.006861,0.003046,9.810040,0.000000,0.000000,0.000000,4.252941
2061,0.128343,5.902452,9.810040,0.000000,0.000000,0.000000,4.252941
2062,0.238106,4.746014,9.809961,0.000000,0.000000,0.000000,4.321135
2063,0.002549,0.000376,9.809961,0.000000,0.000000,0.000000,4.321135
2064,0.067917,4.339113,9.810079,0.000000,0.000000,0.000000,4.321135
2065,0.207963,3.812303,9.809961,0.000000,0.000000,0.000000,4.389328
2066,-0.002470,-0.000497,9.809961,0.000000,0.000000,0.000000,4.389328
2067,0.002768,-0.000392,9.810040,0.000000,0.000000,0.000000,4.389328
2068,0.098631,5.272837,9.810040,0.000000,0.000000,0.000000,4.389328
2069,0.273705,5.702269,9.809922,0.000000,0.000000,-0.000003,4.457522
2070,-0.002262,-0.001235,9.810040,0.000000,0.000000,-0.000003,4.457522
2071,0.037932,3.384519,9.810040,0.000000,0.000000,-0.000003,4.457522
2072,0.238666,4.596016,9.809961,0.000000,0.000000,0.000000,4.525716
2073,0.000116,-0.000614,9.809961,0.000000,0.000000,0.000000,4.525716
2074,0.075481,4.490141,9.810079,0.000000,0.000000,0.000000,4.525716
2075,0.374227,5.177616,9.809961,0.000000,0.000000,0.000000,4.616642
2076,-0.002369,-0.001483,9.810000,0.000000,0.000000,0.000000,4.616642
2077,-0.000060,0.000622,9.809961,0.000000,0.000000,0.000000,4.616642
2078,0.000060,-0.000622,9.810040,0.000000,0.000000,0.000000,4.616642
2079,0.178176,6.931279,9.810040,0.000000,0.000000,0.000000,4.616642
2080,0.415790,6.058948,9.809961,0.000000,0.000000,0.000000,4.707567
2081,-0.000003,0.000625,9.809961,0.000000,0.000000,0.000000,4.707567
2082,0.000003,-0.000625,9.810040,0.000000,0.000000,0.000000,4.707567
2083,0.135841,6.047598,9.810040,0.000000,0.000000,0.000000,4.707567
2084,-0.000625,-0.224999,9.809961,0.000000,0.000000,0.000000,4.715168
2085,0.000002,0.000625,9.810000,0.000000,0.000000,0.000000,4.715168
2086,0.000000,0.000000,9.809961,0.000000,0.000000,0.000000,4.715168
2087,0.000000,0.000000,9.810040,0.000000,0.000000,0.000000,4.715168
2088,0.000939,1.237502,9.810040,0.000000,0.000000,0.000000,4.715168
2089,-6.713673,-41.798374,9.809961,0.000000,0.000000,0.000000,4.715168
2090,-0.002502,-0.000618,9.810000,0.000000,0.000000,0.000000,4.715168
2091,0.000002,0.000625,9.810000,0.000000,0.000000,0.000000,4.715168
2092,-0.002500,0.000007,9.810000,0.000000,0.000000,0.000000,4.715168
2093,0.002498,-0.000632,9.810000,0.000000,0.000000,0.000000,4.715168
2094,-0.004998,0.000639,9.810000,0.000000,0.000000,0.000000,4.715168
2095,0.002500,-0.000007,9.810000,0.000000,0.000000,0.000000,4.715168
2096,0.000000,0.000000,9.810000,0.000000,0.000000,0.000000,4.715168
2097,0.000000,0.000000,9.810000,0.000000,0.000000,0.000000,4.715168
2098,0.000000,0.000000,9.810000,0.000000,0.000000,0.000000,4.715168
2099,0.002498,-0.000632,9.810000,0.000000,0.000000,0.000000,4.715168
2100,-0.002498,0.000632,9.810000,0.000000,0.000000,0.000000,4.715168
2101,0.000000,0.000000,9.810000,0.000000,0.000000,0.000000,4.715168
2102,0.000000,0.000000,9.810000,0.000000,0.000000,0.000000,4.715168
2103,0.002498,-0.000632,9.810000,0.000000,0.000000,0.000000,4.715168
2104,-0.002498,0.000632,9.809961,0.000000,0.000000,0.000000,4.715168
2105,0.000000,0.000000,9.810040,0.000000,0.000000,0.000000,4.715168
2106,0.000000,0.000000,9.810000,0.000000,0.000000,0.000000,4.715168
2107,-0.000002,-0.000625,9.810000,0.000000,0.000000,0.000000,4.715168
2108,-0.002498,0.000632,9.810000,0.000000,0.000000,0.000000,4.715168
2109,0.005000,-0.000014,9.810000,0.000000,0.000000,0.000000,4.715168
2110,-0.005000,0.000014,9.810000,0.000000,0.000000,0.000000,4.715168
2111,0.005000,-0.000014,9.810000,0.000000,0.000000,0.000000,4.715168
2112,-0.002500,0.000007,9.810000,0.000000,0.000000,0.000000,4.715168
2113,-0.000002,-0.000625,9.810000,0.000000,0.000000,0.000000,4.715168
2114,0.000000,0.000000,9.810000,0.000000,0.000000,0.000000,4.715168
2115,0.002502,0.000618,9.810000,0.000000,0.000000,0.000000,4.715168
2116,-0.005002,-0.000611,9.810000,0.000000,0.000000,0.000000,4.715168
2117,0.002502,0.000618,9.810000,0.000000,0.000000,0.000000,4.715168
2118,0.000000,0.000000,9.810000,0.000000,0.000000,0.000000,4.715168
2119,-0.000003,-0.001250,9.810000,0.000000,0.000000,0.000000,4.715168
2120,-0.002498,0.000632,9.810000,0.000000,0.000000,0.000000,4.715168
2121,0.005000,-0.000014,9.810000,0.000000,0.000000,0.000000,4.715168
2122,6.718676,41.799606,9.810040,0.000000,0.000000,0.000000,4.715168
2123,-0.006684,-1.505612,9.809961,0.000000,0.000000,0.000000,4.715168
2124,-0.002500,0.000007,9.810000,0.000000,0.000000,0.000000,4.715168
2125,-0.000002,-0.000625,9.810000,0.000000,0.000000,0.000000,4.715168
2126,0.000002,0.000625,9.810000,0.000000,0.000000,0.000000,4.715168
2127,0.002500,-0.000007,9.810000,0.000000,0.000000,0.000000,4.715168
2128,-0.002500,0.000007,9.809961,0.000000,0.000000,0.000000,4.715168
2129,0.000000,0.000000,9.810040,0.000000,0.000000,0.000000,4.715168
2130,-0.000002,-0.000625,9.810000,0.000000,0.000000,0.000000,4.715168
2131,0.002502,0.000618,9.810000,0.000000,0.000000,0.000000,4.715168
2132,0.000000,0.000000,9.810000,0.000000,0.000000,0.000000,4.715168
2133,-0.002503,-0.001243,9.810000,0.000000,0.000000,0.000000,4.715168
2134,0.000005,0.001875,9.810000,0.000000,0.000000,0.000000,4.715168
2135,-0.000005,-0.001875,9.810000,0.000000,0.000000,0.000000,4.715168
2136,0.002503,0.001243,9.810000,0.000000,0.000000,0.000000,4.715168
2137,0.004182,1.504994,9.810040,0.000000,0.000000,0.000000,4.715168
2138,0.004856,-0.051889,9.809961,0.000000,0.000000,0.000000,4.715168
2139,0.000002,0.000625,9.810000,0.000000,0.000000,0.000000,4.715168
2140,-0.002502,-0.000618,9.810000,0.000000,0.000000,0.000000,4.715168
2141,0.002500,-0.000007,9.810000,0.000000,0.000000,0.000000,4.715168
2142,-0.002500,0.000007,9.810000,0.000000,0.000000,0.000000,4.715168
2143,0.005000,-0.000014,9.809961,0.000000,0.000000,0.000000,4.715168
2144,-0.004998,0.000639,9.810040,0.000000,0.000000,0.000000,4.715168
2145,0.002498,-0.000632,9.810000,0.000000,0.000000,0.000000,4.715168
2146,0.000000,0.000000,9.810000,0.000000,0.000000,0.000000,4.715168
2147,-0.002498,0.000632,9.810000,0.000000,0.000000,0.000000,4.715168
2148,0.002498,-0.000632,9.810000,0.000000,0.000000,0.000000,4.715168
2149,-0.002500,0.000007,9.810000,0.000000,0.000000,0.000000,4.715168
2150,-0.000002,-0.000625,9.810000,0.000000,0.000000,0.000000,4.715168
2151,0.002502,0.000618,9.810000,0.000000,0.000000,0.000000,4.715168
2152,-0.002356,0.051882,9.810040,0.000000,0.000000,0.000000,4.715168
2153,-0.000005,-0.001875,9.809961,0.000000,0.000000,0.000000,4.715168
2154,0.002500,-0.000007,9.810000,0.000000,0.000000,0.000000,4.715168
2155,-0.002502,-0.000618,9.810000,0.000000,0.000000,0.000000,4.715168
2156,0.000002,0.000625,9.810000,0.000000,0.000000,0.000000,4.715168
2157,0.002500,-0.000007,9.810000,0.000000,0.000000,0.000000,4.715168
2158,-0.002502,-0.000618,9.809961,0.000000,0.000000,0.000000,4.715168
2159,0.000002,0.000625,9.810040,0.000000,0.000000,0.000000,4.715168
2160,0.002500,-0.000007,9.810000,0.000000,0.000000,0.000000,4.715168
2161,-0.002502,-0.000618,9.810000,0.000000,0.000000,0.000000,4.715168
2162,0.000003,0.001250,9.810000,0.000000,0.000000,0.000000,4.715168
2163,0.002497,-0.001257,9.810000,0.000000,0.000000,0.000000,4.715168
2164,-0.002495,0.001882,9.810000,0.000000,0.000000,0.000000,4.715168
2165,-0.000005,-0.001875,9.810000,0.000000,0.000000,0.000000,4.715168
2166,0.002503,0.001243,9.810000,0.000000,0.000000,0.000000,4.715168
2167,-0.002497,0.001257,9.810040,0.000000,0.000000,0.000000,4.715168
2168,-0.000002,-0.000625,9.809922,0.000000,0.000000,0.000000,4.715168
2169,0.002500,-0.000007,9.810040,0.000000,0.000000,0.000000,4.715168
2170,-0.002498,0.000632,9.810040,0.000000,0.000000,0.000000,4.715168
2171,0.000000,0.000000,9.809961,0.000000,0.000000,0.000000,4.715168
2172,0.002498,-0.000632,9.810000,0.000000,0.000000,0.000000,4.715168
2173,-0.002497,0.001257,9.810000,0.000000,0.000000,0.000000,4.715168
2174,-0.000003,-0.001250,9.810000,0.000000,0.000000,0.000000,4.715168
2175,0.002502,0.000618,9.810000,0.000000,0.000000,0.000000,4.715168
2176,-0.002500,0.000007,9.810000,0.000000,0.000000,0.000000,4.715168
2177,0.000000,0.000000,9.809961,0.000000,0.000000,0.000000,4.715168
2178,0.002498,-0.000632,9.810040,0.000000,0.000000,0.000000,4.715168
2179,-0.002498,0.000632,9.810000,0.000000,0.000000,0.000000,4.715168
2180,-0.000002,-0.000625,9.810000,0.000000,0.000000,0.000000,4.715168
2181,0.002502,0.000618,9.810000,0.000000,0.000000,0.000000,4.715168
2182,-0.002502,-0.000618,9.810000,0.000000,0.000000,0.000000,4.715168
2183,0.000002,0.000625,9.810000,0.000000,0.000000,0.000000,4.715168
2184,0.001248,-0.000628,9.810000,0.000000,0.000000,0.000000,4.715168
2185,0.000003,0.001250,9.810040,0.000000,0.000000,0.000000,4.715168
2186,-0.001252,-0.000622,9.809961,0.000000,0.000000,0.000000,4.715168
2187,0.001250,-0.000003,9.810000,0.000000,0.000000,0.000000,4.715168
2188,0.000002,0.000625,9.810000,0.000000,0.000000,0.000000,4.715168
2189,-0.001253,-0.001247,9.810000,0.000000,0.000000,0.000000,4.715168
2190,0.001252,0.000622,9.810000,0.000000,0.000000,0.000000,4.715168
2191,-0.000002,-0.000625,9.809961,0.000000,0.000000,0.000000,4.715168
2192,-0.001248,0.000628,9.810040,0.000000,0.000000,0.000000,4.715168
2193,0.001248,-0.000628,9.810000,0.000000,0.000000,0.000000,4.715168
2194,0.000002,0.000625,9.810000,0.000000,0.000000,0.000000,4.715168
2195,-0.001252,-0.000622,9.810000,0.000000,0.000000,0.000000,4.715168
2196,0.001253,0.001247,9.810000,0.000000,0.000000,0.000000,4.715168
